aX,aY,aZ,gX,gY,gZ,Roll,Pitch
0.49,0.304,-0.835,1.831,-7.446,1.404,17.429,28.882
0.473,0.343,-0.743,11.658,15.747,2.93,19.295,29.468
0.514,0.298,-0.768,-7.446,-1.465,8.362,18.822,30.289
0.422,0.343,-0.873,-24.353,3.967,2.319,19.013,28.716
0.314,0.264,-1.193,52.917,-22.278,-10.193,17.449,24.456
0.602,0,-0.433,55.969,47.119,45.898,13.552,28.637
0.006,0.462,-0.529,-40.1,-36.865,-9.46,17.891,22.707
0.679,1.185,-1.207,-1.892,-19.897,33.142,27.173,22.485
0.62,0.525,-0.298,81.482,56.458,145.691,34.874,30.115
-0.465,0.445,-0.551,-44.373,-42.664,51.208,43.921,12.862
0.534,1.81,-1.519,32.898,-11.902,83.13,46.015,14.373
-0.083,1.275,-0.463,132.568,58.228,136.658,54.485,6.984
-0.685,0.037,0.583,109.436,55.847,143.677,59.856,-9.757
-0.828,0.248,-0.062,26.062,18.555,120.117,61.812,-16.127
-0.596,0.154,-0.515,3.967,33.325,84.717,37.402,-51.052
-0.453,-0.473,-0.807,37.354,19.897,10.925,-0.761,-72.636
-0.853,0.496,0.228,12.39,45.105,-2.197,8.132,-65.733
-0.788,0.158,0.961,34.485,52.979,36.926,7.06,-82.402
-1.432,-0.726,0.404,-15.747,-15.442,-2.38,-8.599,-74.81
-1.049,-0.096,-0.114,-62.5,-49.072,-30.09,-2.203,-70.15
-0.824,0.279,-0.187,-19.775,-6.897,-6.836,-5.209,-74.552
-0.705,0.426,-0.001,10.254,14.771,1.099,-1.677,-87.791
-0.866,-0.049,0.453,34.79,57.617,38.208,9.232,-80.439
-1.178,-0.717,1.435,12.512,30.273,26.917,-0.887,-64.552
-1.272,-0.321,0.103,-93.323,-62.561,-24.963,-8.387,-62.46
-0.89,0.117,-0.377,-59.814,-66.162,-34.607,-12.15,-65.879
-0.518,0.192,-0.657,-21.301,-35.034,-34.729,-10.621,-77.055
-0.514,0.269,0.391,-37.842,-23.926,-42.969,4.532,-79.393
-0.856,-0.211,-0.178,1.16,-52.002,-40.222,7.223,-72.051
-0.586,-0.016,-0.601,-95.581,-77.698,-126.404,4.975,-66.577
-0.264,1.091,-0.909,-59.082,-58.96,-112.854,23.781,-52.184
0.192,1.746,-0.066,-39.246,-21.484,-90.637,48.393,-25.712
-0.253,0.393,-0.462,24.292,-53.406,-101.685,55.217,-13.46
0.273,0.424,-1.575,-5.127,-68.97,-109.009,50.493,-0.632
0.509,0.649,-1.109,-10.498,-34.363,-71.106,44.291,9.014
0.627,0.55,-0.608,-10.315,-15.747,-63.843,27.169,15.174
0.559,0.351,-0.958,20.874,3.54,-1.892,22.85,22.772
0.533,0.329,-0.826,-20.752,-5.859,-6.897,24.365,29.27
0.592,0.044,-0.469,-21.729,-10.559,-5.981,19.11,36.418
0.65,0.326,-0.77,-2.258,-4.333,-5.371,15.375,36.103
0.558,0.27,-0.783,-14.282,1.77,10.803,14.745,37.8
0.576,0.273,-0.772,1.953,1.343,0.122,13.965,38.95
0.606,0.233,-0.789,-10.925,-8.179,2.93,15.667,35.884
aX,aY,aZ,gX,gY,gZ,Roll,Pitch
0.59,0.235,-0.777,-4.578,-4.578,0.244,14.529,35.386
0.574,0.349,-0.71,30.396,13.916,-0.183,15.802,35.936
0.515,0.279,-0.805,-1.099,4.028,4.15,15.926,34.957
0.63,0.388,-0.693,27.527,2.502,-14.648,18.329,35.516
0.672,0.003,-1.3,78.369,-68.298,-7.141,13.487,33.218
0.786,0.668,-1.31,-33.691,-6.958,29.175,15.371,31.083
0.597,0.872,-0.569,38.94,52.673,100.647,22.28,31.832
-0.186,0.314,-0.482,35.828,-19.653,56.885,24.31,24.487
0.378,0.96,-1.634,22.522,-26.062,63.416,33.237,17.868
0.474,1.221,-0.762,74.28,63.293,124.451,42.528,14.683
-0.155,0.401,0.506,93.079,80.688,129.211,50.039,7.772
-0.667,1.038,-0.873,-13.977,-40.405,43.03,52.637,0.376
-0.436,0.947,-1.201,38.513,-11.841,71.289,55.713,-10.354
-0.529,0.681,0.137,27.161,82.581,101.318,53.25,-27.849
-0.829,0.359,1.02,50.964,76.599,88.684,49.03,-37.91
-1.162,-0.214,0.546,44.556,21.79,72.144,30.596,-58.062
-1.205,-0.499,0.112,65.857,6.226,48.401,4.514,-63.662
-0.964,-0.385,-0.575,-1.709,-32.043,7.629,-9.742,-72.309
-0.49,0.962,-0.072,-12.268,15.32,-32.898,-2.037,-87.957
-0.689,0.326,0.133,50.598,37.415,21.362,6.827,-80.334
-1.106,-0.698,1.197,20.02,22.217,23.437,3.529,-77.629
-1.294,-0.49,0.168,-37.903,-46.814,-17.944,1.492,-68.225
-0.891,0.183,-0.299,-49.316,-40.894,-22.461,-9.266,-70.909
-0.687,0.191,0.554,4.395,31.616,15.991,-10.717,-65.502
-1.109,-0.683,0.827,0.366,3.601,12.146,-10.827,-69.565
-1.083,-0.323,0.153,-76.538,-68.665,-48.401,-9.04,-69.799
-0.684,-0.034,-0.803,-70.557,-80.078,-83.008,-13.137,-72.551
-0.334,0.576,-0.696,-92.896,-40.222,-67.749,-8.122,-77.754
-0.854,0.427,0.556,-22.766,-13.184,-63.171,11.938,-70.926
-0.457,0.476,-1.291,-70.251,-94.421,-104.553,24.131,-41.184
-0.325,0.785,-1.434,-75.256,-39.795,-55.054,33.082,-28.341
-0.494,-0.193,-0.036,-16.418,-23.315,-105.469,26.011,-38.632
0.207,0.75,-0.785,-8.606,-72.693,-106.018,26.149,-15.008
0.507,1.29,-1.432,-17.395,-23.987,-47.913,35.502,-1.318
0.633,0.084,-0.77,16.785,35.95,-12.939,31.571,13.385
0.286,-0.352,-0.369,-2.686,-10.254,-54.504,25.386,23.292
0.615,0.28,-1.288,-42.725,-52.917,-32.532,16.607,26.623
0.699,0.619,-0.794,17.517,1.892,9.338,9.145,34.238
0.542,-0.014,-0.676,14.954,9.583,2.319,7.993,34.05
0.459,0.149,-1.017,-30.701,-19.653,-8.362,13.135,30.619
0.511,0.159,-0.753,-4.883,-6.836,4.944,13.094,33.316
0.508,0.217,-0.883,6.836,4.395,6.409,7.469,30.961
0.606,0.151,-0.777,5.554,0.916,-1.892,9.565,30.8
0.519,0.195,-0.838,5.554,-2.38,2.38,10.511,32.76
0.563,0.085,-0.857,12.024,5.92,-0.427,9.187,32.716
aX,aY,aZ,gX,gY,gZ,Roll,Pitch
0.547,0.246,-0.798,-1.709,-3.54,1.404,9.712,33.794
0.564,0.408,-0.833,71.228,26.245,-16.907,13.198,32.408
0.508,0.141,-0.841,-7.263,15.808,5.127,12.467,32.369
0.835,0.798,-1.066,-10.315,-3.113,0.366,20.301,32.319
0.648,0.815,-0.302,-9.888,27.649,61.157,28.553,34.397
0.174,0.546,-0.712,21.057,13.55,75.684,32.312,30.218
0.145,0.489,-1.256,20.02,-17.578,48.889,34.922,22.941
0.585,1.171,-1.01,55.42,23.743,67.322,39.768,19.197
0,1.042,-0.381,39.673,62.5,119.934,43.028,10.96
-0.451,0.411,-0.332,52.612,34.302,92.59,46.128,3.712
-0.573,0.563,-1.3,32.959,-9.46,70.007,46.217,-5.702
-0.358,1.005,-0.46,60.974,62.805,86.487,46.848,-19.487
-0.7,0.669,0.205,61.401,79.712,103.76,43.314,-32.624
-0.623,0.35,0.449,55.176,41.199,77.637,45.875,-38.688
-1.215,-0.901,0.564,13.123,6.836,47.852,20.591,-64.901
-1.222,-0.39,-0.07,-18.738,-31.494,-10.193,-3.942,-72.57
-0.739,0.179,-0.283,-37.537,-16.235,-18.921,-11.173,-75.136
-0.564,0.534,0.041,15.991,28.564,10.132,-8.767,-80.429
-0.949,0.069,0.45,20.691,43.579,32.837,6.427,-83.184
-1.259,-0.568,0.845,16.296,5.737,6.226,3.343,-72.987
-1.051,-0.17,-0.046,-39.307,-44.495,-20.447,-1.913,-71.263
-0.604,0.558,-0.452,3.418,-16.235,-19.226,-1.611,-78.235
-0.597,0.32,-0.056,16.479,23.315,8.118,2.271,-84.746
-0.862,0.088,0.254,26.978,49.988,22.278,14.26,-74.739
-0.973,-0.478,1.029,8.972,45.288,28.992,8.848,-73.206
-1.076,-0.719,0.479,-40.039,-31.433,-37.17,-11.429,-61.809
-0.798,-0.427,-0.168,-75.928,-81.177,-59.998,-20.824,-59.166
-0.669,0.416,-0.47,-111.145,-67.749,-116.943,-18.432,-67.053
-0.488,0.743,-0.573,-53.65,-63.416,-81.604,0.256,-76.435
-0.584,0.706,-0.107,-29.602,-39.612,-84.778,26.693,-52.475
-0.272,0.776,-0.884,-57.495,-99.304,-132.202,42.713,-31.136
0.289,1.01,-1.232,-87.158,-42.419,-94.666,47.266,-13.873
0.57,0.602,-0.246,25.818,17.7,-77.515,51.405,0.027
0.293,0.766,-0.333,-35.767,-2.991,-50.049,48.047,11.967
0.42,0.248,-1.022,4.089,-27.893,-45.776,39.021,22.144
0.515,0.386,-0.983,4.395,-4.822,-7.751,32.461,28.817
0.472,0.277,-0.686,-20.081,-9.644,-1.038,25.803,26.181
0.517,0.253,-0.873,-15.503,6.226,9.949,16.044,27.166
0.581,0.219,-0.762,1.16,2.075,0,16.207,30.831
0.477,0.276,-0.816,7.751,3.357,0.122,15.308,31.814
0.535,0.213,-0.843,5.615,0.427,0.061,13.81,31.594
aX,aY,aZ,gX,gY,gZ,Roll,Pitch
0.518,0.271,-0.789,1.282,-6.287,2.38,14.29,32.179
0.499,0.256,-0.807,13.245,18.921,-0.549,14.824,30.758
0.5,0.221,-0.826,-5.371,1.526,4.089,13.98,31.09
0.528,0.163,-0.843,-4.456,14.709,-6.592,13.297,31.102
0.581,-0.028,-1.114,-20.508,-3.601,20.325,8.357,30.064
0.298,-0.036,-0.115,72.205,-9.827,0.122,5.279,33.19
0.641,0.54,-1.546,-20.142,-50.354,11.414,8.747,29.135
0.592,0.848,-0.593,24.658,49.316,114.685,18.417,30.271
-0.055,0.439,-0.172,66.223,50.354,112.061,32.25,26.087
-0.379,0.757,-1.274,46.326,-3.479,108.765,35.131,10.247
-0.087,0.586,-1.386,63.843,28.32,126.221,37.518,0.941
-0.43,0.893,-0.047,59.143,73.303,112.122,41.423,-13.601
-0.561,0.35,-0.08,50.659,21.79,111.633,39.426,-20.976
-0.689,-0.261,0.223,31.86,37.476,115.173,35.611,-41.038
-0.855,-0.661,-0.455,-0.122,-25.269,23.621,7.12,-79.257
-0.767,-0.611,-0.391,-58.105,-9.644,-3.54,-21.829,-64.382
-0.82,0.329,0.269,2.197,40.039,22.461,-20.93,-68.139
-1.19,-0.357,0.741,7.751,28.931,22.461,-19.684,-70.153
-1.13,-0.598,0.606,-20.386,-1.16,5.127,-16.812,-65.98
-0.906,-0.159,-0.153,-2.686,-20.325,-13.184,-10.334,-67.69
-0.691,0.005,0.114,-5.92,8.301,-6.287,-15.031,-66.357
-0.923,-0.079,0.488,15.32,19.226,8.362,-12.338,-69.807
-1.088,-0.412,0.5,-10.742,0.366,2.136,-9.812,-72.359
-0.879,-0.089,0.008,-9.888,-29.541,-14.771,-8.728,-70.761
-0.793,-0.224,0.367,13.977,20.752,4.211,-11.577,-66.75
-0.943,-0.279,0.629,-17.7,-2.747,-19.836,-14.111,-63.97
-0.7,-0.365,0.299,-41.138,-39.917,-41.87,-15.047,-63.999
-0.781,-0.228,-0.091,-67.932,-73.73,-88.013,-17.697,-63.152
-0.677,0.425,-0.738,-94.177,-88.318,-105.53,-8.19,-81.609
-0.496,1.151,-0.757,-83.618,-50.049,-89.722,18.434,-58.616
-0.243,0.672,-0.513,-55.725,-32.349,-99.243,33.611,-37.022
-0.011,0.915,0.01,-40.588,-60.913,-118.347,52.165,-20.889
0.344,0.532,-1.071,-11.047,-52.734,-109.314,54.101,-5.781
0.266,0.348,-0.992,31.067,-13.916,-75.562,43.585,5.714
0.494,0.481,-1.002,-8.362,-8.484,-13.245,35.041,16.018
0.509,0.168,-0.544,-22.888,10.132,-4.211,21.136,22.382
0.487,0.257,-0.835,-19.226,-12.573,-5.615,18.238,26.023
0.608,0.106,-0.709,-9.766,-8.484,4.211,15.159,32.832
0.563,0.374,-0.875,10.498,-0.366,-4.15,13.848,34.966
0.555,0.22,-0.77,-4.211,5.188,12.451,13.859,33.602
0.519,0.244,-0.755,1.221,1.404,2.075,13.834,34.633
0.493,0.292,-0.783,-2.38,2.075,2.38,16.436,32.23
aX,aY,aZ,gX,gY,gZ,Roll,Pitch
0.504,0.355,-0.805,-2.502,-4.517,1.648,16.544,32.059
0.536,0.501,-0.722,34.79,20.569,-6.592,20.668,31.363
0.412,0.333,-0.879,-23.315,4.517,9.094,21.623,28.957
0.565,0.472,-0.651,4.578,-11.292,-14.526,24.391,30.116
0.737,0.884,-1.024,25.33,27.588,41.931,28.855,29.732
0.54,-0.05,-0.196,31.311,46.875,77.026,24.741,35.153
-0.116,0.671,-0.566,-17.883,-19.043,49.133,33.507,28.804
0.485,0.874,-1.764,29.358,-12.268,77.393,31.295,21.056
0.151,1.056,-0.313,87.83,80.017,130.188,40.089,15.513
-0.764,0.082,0.169,23.254,8.484,87.097,47.185,-3.838
-0.717,0.735,-1.057,16.846,-23.621,72.876,41.707,-11.821
-0.677,0.364,-0.814,18.25,12.207,84.412,38.199,-33.698
-0.643,0.494,-0.578,-8.24,26.428,64.941,24.896,-44.729
-0.591,0.798,-0.233,4.7,59.998,57.312,32.499,-36.191
-0.848,0.302,0.375,51.575,85.815,57.678,32.894,-49.905
-0.914,-0.463,1.613,63.477,90.271,62.256,19.373,-61.402
-1.255,-0.845,0.698,-3.967,-14.648,1.465,-2.723,-55.697
-0.793,-0.052,-0.666,-9.583,-75.073,-38.696,-13.782,-59.101
-0.763,0.409,0.285,26.55,49.316,18.433,-12.777,-59.994
-1.059,-0.279,0.903,18.982,37.537,24.109,-10.71,-69.578
-1.14,-0.093,0.148,-36.194,-39.978,-20.996,-0.224,-79.883
-0.804,0.03,-0.342,12.939,2.808,-12.695,0.989,-75.185
-0.993,-0.032,0.799,0.793,35.95,16.846,-5.006,-68.752
-1.307,-0.578,0.476,-45.898,-29.419,-12.878,-8.742,-73.299
-0.894,-0.092,-0.198,-38.208,-52.185,-41.504,-9.399,-76.005
-0.727,-0.084,-0.149,-52.795,-25.146,-47.302,-11.058,-72.752
-0.751,1.078,0.171,-75.195,-44.434,-90.088,5.001,-83.162
-0.707,-0.46,-0.066,-30.273,-38.818,-33.569,8.137,-80.72
-0.352,0.068,-0.367,-110.901,-86.304,-126.282,13.169,-73.999
-0.164,0.208,-1.511,-92.163,-96.619,-93.445,18.63,-44.853
0.29,0.895,-0.997,-36.377,-18.188,-95.581,12.988,-17.147
0.363,0.945,-0.611,13.062,-22.4,-116.028,31.253,1.924
0.422,0.278,-0.919,-9.583,-30.701,-79.407,29.349,11.064
0.725,0.356,-1.119,-17.09,-2.319,-28.503,31.328,22.226
0.558,0.237,-0.746,-0.122,-6.165,-22.156,24.561,28.24
0.566,0.301,-0.838,-3.723,-15.747,-4.15,15.339,30.819
0.613,0.201,-0.67,-6.409,-1.038,7.935,14.694,34.772
0.546,0.316,-0.89,2.075,0.671,4.7,15.2,34.543
0.513,0.269,-0.759,2.563,3.906,3.052,15.704,33.834
0.497,0.304,-0.867,-1.343,-2.625,2.869,15.808,32.79
0.5,0.231,-0.801,-6.531,0.488,4.089,16.037,30.428
0.532,0.292,-0.83,-1.404,-1.16,0.366,15.928,30.72
aX,aY,aZ,gX,gY,gZ,Roll,Pitch
0.513,0.314,-0.799,-4.15,-6.409,-0.061,16.395,30.338
0.5,0.443,-0.602,26.367,26.489,-5.31,19.294,31.848
0.436,0.246,-0.849,-27.222,7.263,13.428,19.468,30.652
0.647,0.767,-1.096,-14.343,-0.244,11.658,24.144,28.966
0.613,-0.041,0.067,-23.193,57.861,42.175,23.134,37.564
0.458,0.672,-1.061,-6.47,-10.62,75.439,24.278,32.601
0.387,1.039,-1.378,64.27,68.97,121.887,30.99,26.416
-0.041,0.142,0.14,97.717,60.852,108.826,34.416,26.242
-0.46,0.465,-0.982,-6.226,-38.025,88.44,35.081,4.886
-0.21,1.164,-1.06,22.583,14.526,96.13,40.434,-4.296
-0.19,0.835,-0.099,76.782,62.805,81.604,49.873,-15.355
-0.729,0.408,0.614,68.604,64.88,92.041,52.475,-26.055
-1.134,-0.343,0.546,-0.732,8.789,71.899,42.338,-47.662
-0.984,0.078,-0.278,6.165,23.254,41.443,17.303,-67.598
-0.63,-0.252,-0.67,-17.578,-14.648,6.165,-1.804,-86.079
-0.589,0.397,0.133,58.533,45.715,26.855,-2.052,-84.955
-1.13,-0.385,0.633,34.668,42.969,39.917,-2.778,-85.812
-1.338,-0.952,0.877,-2.014,7.874,6.836,-17.358,-67.354
-1.146,-0.13,0.113,-42.908,-42.969,-39.185,-13.21,-63.936
-0.676,0.379,-0.446,5.798,-15.015,-11.353,-13.746,-69.515
-0.762,0.193,0.001,36.804,19.714,11.414,-7.329,-79.228
-1.125,-0.5,0.694,-0.732,17.029,6.287,-0.891,-84.359
-1.17,-0.266,0.337,-27.893,-15.747,-16.479,-2.954,-80.612
-0.766,0.133,-0.315,-1.587,-20.203,-8.85,-6.466,-77.578
-0.777,0.175,0.095,20.874,25.146,11.292,-6.681,-76.346
-0.88,-0.55,0.727,-22.278,-8.606,-29.785,-7.854,-74.657
-1.007,-0.488,0.316,-56.702,-40.771,-44.067,-11.701,-72.214
-0.809,0.188,-0.684,-82.153,-91.064,-87.219,-10.904,-76.824
-0.692,0.755,-0.699,-78.491,-48.584,-91.064,-1.589,-84.046
-0.452,0.46,-0.29,9.705,-23.804,-80.078,15.704,-61.05
-0.368,0.292,-0.074,-37.231,-41.26,-115.54,30.27,-43.632
-0.239,0.432,-1.678,-20.813,-72.754,-130.066,30.798,-27.525
0.265,0.979,-1.122,-61.157,-31.067,-83.069,33.543,-11.684
0.535,0.93,-0.499,23.865,6.958,-82.153,37.927,2.592
0.637,0.628,-0.529,31.738,-25.085,-80.872,36.504,13.894
0.3,0.132,-1.286,27.344,-32.776,-60.608,34.73,21.764
0.762,0.802,-0.863,-23.682,0.244,-0.916,32.681,28.955
0.843,0.64,-0.273,17.822,20.142,14.709,29.477,34.62
0.601,0.227,-0.843,-35.767,-10.864,-1.831,23.634,33.9
0.57,0.213,-0.874,-33.569,-5.066,4.944,25.306,39.086
0.62,0.343,-0.683,-8.606,-1.038,0.305,20.767,41.025
0.552,0.248,-0.828,3.418,-1.831,9.033,14.484,34.674
0.554,0.376,-0.773,18.799,4.761,1.404,16.813,34.264
aX,aY,aZ,gX,gY,gZ,Roll,Pitch
0.544,0.32,-0.767,0.122,-5.92,2.686,18.687,34.436
0.494,0.413,-0.62,27.588,13.977,-4.761,20.245,33.16
0.357,0.013,-0.952,-2.38,-44.067,34.302,16.994,30.503
0.824,0.449,-1.199,46.936,58.35,-9.888,15.961,30.732
0.236,1.209,-0.507,29.053,55.603,78.552,28.773,26.206
0.172,0.146,-1.178,35.645,-50.903,52.063,23.633,20.531
1.054,2.114,-1.071,38.818,3.601,107.361,40.609,22.334
0.072,1.233,-0.123,122.803,76.477,102.6,55.242,15.555
-0.525,0.057,0.171,45.837,0.366,56.824,56.689,10.493
-0.712,0.762,-1.26,-33.997,-59.143,33.203,61.249,-1.334
-0.616,0.882,-1.172,28.198,-21.484,90.393,44.603,-25.227
-0.584,1.297,0.412,68.787,48.462,55.969,44.426,-34.682
-0.757,0.666,0.753,82.153,26.428,48.706,50.674,-34.93
-0.988,-0.244,0.159,35.461,13.123,58.655,41.4,-48.513
-1.15,-0.12,-0.349,-38.147,-21.301,24.963,23.857,-61.72
-0.846,0.036,-0.702,-45.715,-15.503,30.579,5.154,-84.424
-0.223,0.756,0.086,34.79,29.419,12.695,7.375,-74.125
-0.766,0.07,0.181,57.983,57.8,57.251,13.516,-70.118
-1.103,-0.7,1.197,34.241,50.659,37.964,3.055,-75.154
-1.315,-0.904,0.957,15.869,8.362,-6.897,-10.544,-53.269
-1.248,-0.146,0.13,-78.064,-41.016,-23.804,-18.326,-56.063
-0.983,0.086,-0.441,-18.188,-46.692,-25.33,-18.395,-61.9
-0.469,0.578,-0.313,16.052,11.353,-6.287,-5.47,-82.76
-0.74,-0.308,0.397,37.903,32.898,16.479,3.478,-84.877
-1.395,-0.896,0.8,-27.039,0.793,-15.991,-8.512,-78.973
-0.785,-0.156,-0.531,-62.073,-83.496,-81.116,-12.932,-75.786
-0.462,-0.034,-0.636,-122.864,-83.496,-116.943,-22.397,-67.598
0.205,1.834,-0.044,-57.678,-26.55,-111.511,16.829,-70.71
-0.144,1.528,0.051,87.891,23.193,-102.722,62.395,-19.351
0.111,-0.532,0.669,22.644,45.654,-120.728,84.019,-5.925
-0.489,0.028,-1.315,-137.939,-76.05,-147.217,75.983,-6.183
0.209,0.769,-1.767,-61.218,-46.509,-90.21,36.958,-6.021
1.13,1.272,-0.388,-91.003,8.118,-25.024,27.433,16.735
0.729,0.035,-0.302,9.521,9.46,-5.92,27.234,20.087
0.467,0.135,-1.029,-34.79,2.869,7.019,27.155,31.564
0.672,0.148,-0.737,-1.831,8.606,-3.357,22.309,45.7
0.429,0.559,-0.743,10.376,-7.629,2.197,13.589,37.956
0.581,0.155,-0.914,7.141,9.888,-9.583,13.862,31.075
0.495,0.149,-0.871,7.202,-5.127,2.991,14.455,32.492
0.549,0.209,-0.809,-4.395,-5.066,3.601,15.308,30.384
0.517,0.259,-0.801,2.502,7.019,0.061,10.886,31.614
0.547,0.232,-0.849,-12.085,-9.094,6.836,12.152,31.542
aX,aY,aZ,gX,gY,gZ,Roll,Pitch
0.493,0.144,-0.857,2.258,-3.296,1.465,12.119,31.627
0.486,0.156,-0.831,9.338,6.653,0.671,11.422,30.789
0.482,0.156,-0.887,-30.151,9.827,6.958,9.83,29.916
0.405,0.103,-0.945,7.141,27.649,-13.306,7.992,27.649
0.143,-0.254,-1.374,62.683,-74.158,-1.099,2.143,20.574
0.773,0.662,-1.726,-17.151,16.907,46.326,7.24,19.916
0.424,0.823,-0.602,44.8,75.317,104.98,15.046,19.844
0.117,0.552,-0.183,58.716,38.391,73.181,23.254,18.815
-0.323,0.336,-1.218,52.429,-11.658,73.853,31.594,12.633
0.139,1.609,-0.896,6.836,43.274,98.45,48.661,4.622
-0.325,1.626,0.206,89.478,83.496,110.352,62.713,-4.857
-0.527,0.172,0.258,125.183,85.083,116.211,62.508,-14.222
-0.913,-0.498,0.256,77.82,35.339,112.305,60.648,-29.166
-0.989,-0.321,-0.244,-18.127,-18.188,22.156,19.312,-68.428
-1.048,-0.324,-0.195,-17.09,-24.475,-0.977,-15.592,-74.361
-0.801,0.057,-0.443,-26.306,-21.912,-9.827,-15.937,-71.525
-0.808,0.337,0.217,14.648,28.015,16.541,-3.876,-78.973
-1.198,-0.48,0.552,5.676,10.254,2.502,-6.064,-83.628
-0.945,0.24,-0.285,-15.686,-18.433,-10.498,2.351,-87.566
-0.716,0.19,0.174,54.199,34.973,8.24,4.407,-78.928
-1.022,-0.286,0.457,39.856,38.086,18.921,-4.817,-76.131
-1.112,-0.474,1.053,17.273,26.489,19.653,-4.673,-69.262
-1.208,-0.415,0.551,-24.963,-2.563,11.597,-12.007,-58.96
-1.064,-0.423,-0.012,-54.993,-51.575,-31.128,-18.211,-59.473
-0.555,0.205,-0.63,-56.091,-58.899,-44.067,-15.276,-69.577
-0.572,0.158,-0.222,-55.115,-29.602,-69.031,-7.914,-80.501
-0.476,1.083,0.127,-37.415,-28.992,-104.065,20.303,-64.682
-0.771,-0.612,-0.244,4.639,-46.265,-87.097,18.051,-61.669
-0.368,0.25,-1.187,-95.581,-88.623,-123.291,18.275,-51.138
0.083,0.85,-1.453,-138.367,-63.965,-103.088,26.491,-25.755
0.408,1.035,-0.623,-63.354,-29.297,-115.845,23.133,-9.612
0.514,1.139,-0.78,-40.527,-28.87,-121.948,38.658,6.983
0.501,0.769,-0.774,5.127,5.737,-79.346,43.975,16.009
0.784,0.945,-0.628,40.283,33.081,-2.93,47.449,24.716
0.641,-0.067,-0.363,69.031,30.334,22.461,38.315,32.89
0.264,-0.125,-1.068,-40.527,-26.428,4.578,23.033,34.258
0.569,0.515,-1.061,-1.648,-0.977,1.953,18.23,33.84
0.586,0.303,-0.558,26.733,18.372,5.188,9.651,33.488
0.515,0.171,-0.801,-17.822,-0.916,-1.587,12.217,28.291
0.452,0.35,-1.051,-2.563,-5.798,-2.747,18.209,29.693
0.568,0.32,-0.86,-29.907,-1.77,7.751,16.36,31.468
0.622,0.226,-0.564,-26.367,-5.127,18.311,15.22,32.041
0.505,0.311,-0.914,3.601,3.845,2.38,16.745,30.823
0.527,0.152,-0.844,2.258,5.798,12.573,14.571,33.656
0.513,0.229,-0.791,-3.357,-3.54,3.723,13.599,33.747
0.501,0.26,-0.827,0,-0.549,0.793,13.551,30.263
0.511,0.225,-0.829,1.953,-1.038,-0.305,12.587,31.097
aX,aY,aZ,gX,gY,gZ,Roll,Pitch
0.508,0.287,-0.785,0.549,-3.052,-0.183,14.682,31.011
0.5,0.297,-0.81,2.93,-0.671,1.648,15.587,30.564
0.496,0.242,-0.821,-11.841,0.732,2.686,15.376,30.587
0.501,0.133,-0.883,-6.104,3.723,-0.977,13.943,30.273
0.126,-0.001,-0.261,20.447,6.653,-14.038,11.792,29.618
0.514,0.541,-1.125,19.226,-13.672,27.283,14.671,26.925
0.707,0.16,-0.813,37.17,28.564,44.617,13.051,30.059
0.305,0.429,-0.02,16.113,-18.494,1.526,22.193,33.572
0.154,0.59,-1.166,-7.507,-20.996,34.851,25.852,25.23
0.026,0.714,-1.652,4.578,-18.127,94.971,26.227,16.165
0.414,1.492,-1.044,-4.761,25.94,121.643,38.975,10.105
0.343,1.955,-0.073,98.633,66.162,121.704,49.583,8.638
-0.512,0.217,-0.404,95.703,57.251,146.79,53.962,2.871
-0.846,-0.309,-1.178,37.598,34.851,121.399,50.497,-7.933
-0.834,-0.35,-0.359,44.189,57.8,79.895,28.96,-36.259
-0.706,-0.753,-0.482,-1.77,26.184,49.316,-17.568,-46.987
-0.218,0.848,-0.097,4.395,11.597,-5.188,-9.556,-49.925
-0.72,0.656,0.333,93.14,32.471,25.146,8.937,-73.675
-1.115,-0.24,0.63,49.805,57.861,33.752,10.394,-76.957
-1.364,-0.848,1.261,18.188,25.146,7.263,5.91,-57.613
-1.362,-0.554,0.366,-25.208,-20.508,-7.019,-10.641,-58.723
-0.922,-0.027,-0.306,-37.659,-37.598,-22.217,-17.968,-61.675
-0.677,0.347,-0.492,-8.484,-9.888,-13.367,-13.806,-72.502
-0.635,0.251,0.171,21.606,43.457,9.827,0.262,-85.843
-0.993,-0.139,0.885,9.949,38.452,26.672,7.604,-81.133
-1.156,-0.24,0.146,-19.47,-53.162,-13.916,3.557,-77.877
-0.938,-0.54,-0.496,-6.287,-54.565,-60.425,-10,-75.366
-0.909,-0.012,-0.304,-101.379,-76.111,-85.51,-13.092,-76.503
-0.733,1.512,0.055,-53.65,-41.199,-119.263,10.765,-75.937
-0.56,1.115,-0.522,-25.757,-37.964,-86.487,31.487,-52.258
-0.029,0.734,-0.678,13.428,1.099,-80.017,51.53,-31.442
0.026,0.765,-0.08,0.488,-10.193,-91.675,66.619,-16.756
-0.15,0.455,-1.069,-21.851,-48.035,-116.394,51.329,-10.446
0.122,0.168,-1.56,-9.338,-65.002,-134.033,32.063,-0.444
0.77,0.745,-0.666,-71.899,7.385,-30.945,31.646,10.894
0.657,0.699,-0.505,25.513,-10.742,-23.193,27.047,17.925
0.565,0.183,-0.943,13.123,15.32,-16.602,22.952,27.34
0.769,0.528,-0.692,37.17,28.076,9.827,28.696,37.973
0.523,0.136,-0.762,-15.991,10.803,8.972,21.922,37.398
0.525,0.104,-0.76,-7.751,0.061,3.357,13.513,35.847
0.52,0.223,-0.832,0.61,2.014,-2.441,14.464,36.123
0.487,0.206,-0.857,-3.113,3.54,3.662,9.954,32.068
0.482,0.19,-0.874,3.967,-0.427,2.869,10.539,30.641
0.484,0.218,-0.871,0,0.488,0.183,11.934,29.17
aX,aY,aZ,gX,gY,gZ,Roll,Pitch
0.451,0.277,-0.84,2.014,-2.197,1.77,12.768,28.163
0.448,0.294,-0.823,3.54,3.296,0.977,14.136,27.746
0.454,0.291,-0.987,-27.954,-5.371,5.188,15.201,26.52
0.46,0.453,-1.048,-0.671,0.183,4.028,17.695,24.808
0.511,0.505,-0.212,1.221,43.091,28.198,23.204,28.617
0.181,0.339,-0.513,-33.936,-7.874,50.781,26.438,26.784
-0.002,0.481,-1.039,14.648,-34.302,22.888,30.352,19.077
0.277,0.319,-1.533,32.288,-2.014,62.988,25.59,14.715
0.691,1.451,-0.829,43.152,46.753,84.839,32.441,13.736
-0.097,-0.618,0.016,76.294,36.377,81.787,25.063,13.021
-0.979,0.365,-1.214,-12.634,-26.123,71.045,23.077,-1.599
-0.707,0.721,-1.253,9.949,7.141,89.294,29.033,-16.033
-0.291,1.137,-0.841,-1.526,57.251,85.266,22.411,-29.525
-0.421,1.244,0.301,111.572,96.741,91.492,42.033,-27.583
-0.697,0.425,0.341,98.938,82.214,87.463,53.972,-29.006
-0.642,-0.689,0.746,34.973,47.485,73.73,44.943,-43.145
-1.373,-0.753,0.199,-33.142,-22.4,-26.062,3.701,-62.891
-0.92,0.125,-0.406,-36.926,-44.373,-43.701,-13.433,-70.955
-0.472,0.593,-0.127,24.78,32.959,15.198,-11.927,-76.245
-0.939,-0.33,0.404,38.33,36.621,35.645,-5.646,-84.251
-1.147,-0.39,0.999,-8.301,27.161,13.977,-0.041,-75.96
-1.219,-0.412,0.203,-10.681,-23.071,-14.465,-7.578,-67.368
-0.851,-0.024,-0.596,-31.555,-38.513,-22.644,-15.124,-69.73
-0.662,0.353,0.069,-15.869,16.724,-3.601,-6.846,-78.006
-0.871,-0.234,0.141,-0.671,-7.446,-54.871,-5.019,-84.208
-0.501,0.721,0.305,-71.35,-52.063,-78.857,15.795,-74.126
-0.74,0.434,-0.024,-30.029,-50.659,-48.401,24.331,-63.795
-0.563,-0.404,-0.62,-17.09,-51.636,-88.196,10.917,-78.302
-0.51,0.817,-0.688,-69.031,-61.096,-119.385,31.773,-50.996
-0.164,0.466,-1.061,-51.88,-78.186,-126.282,22.93,-35.927
0.056,0.774,-1.292,-63.904,-63.904,-104.553,23.258,-16.392
0.419,1.03,-1.16,-9.521,-26.55,-70.435,36.284,-2.192
0.745,1.082,-0.614,-10.254,-6.897,-40.466,38.2,11.227
0.714,0.571,-0.65,36.133,33.386,-38.574,39.53,20.851
0.521,0.154,-0.652,16.541,21.851,3.418,36.028,29.82
0.33,0.056,-0.955,-25.024,-13.184,-10.925,26.815,34.012
0.444,0.288,-0.875,-18.494,-2.136,0.732,16.026,31.26
0.495,0.188,-0.919,-2.441,-2.014,1.526,10.123,27.293
0.478,0.057,-0.842,16.479,2.563,-3.784,8.39,25.642
0.491,0.181,-0.865,-6.042,0.427,1.16,10.155,28.105
0.498,0.145,-0.848,-0.122,5.554,13.916,8.142,29.127
0.481,0.131,-0.811,1.038,2.136,3.601,7.53,29.762
0.467,0.154,-0.851,-0.427,-0.793,2.991,8.921,29.454
0.466,0.166,-0.859,1.831,-1.892,0.916,8.734,29.202
0.48,0.192,-0.879,-1.038,-2.136,1.953,9.381,28.698
aX,aY,aZ,gX,gY,gZ,Roll,Pitch
0.432,0.784,0.38,23.56,-0.366,1.953,53.699,26.388
0.418,0.791,0.374,2.136,2.258,-3.784,54.177,25.962
0.379,0.782,0.308,-11.292,-1.892,15.686,55.419,25.436
0.376,0.815,0.339,9.033,9.216,4.15,56.103,24.844
0.424,0.761,0.345,49.805,27.466,2.808,56.276,24.954
0.42,1.179,0.334,-20.752,-31.006,5.371,59.568,22.951
0.404,0.832,0.327,-5.371,-26.855,3.174,59.545,22.97
0.384,0.872,0.421,-8.24,-29.968,3.906,59.243,22.641
0.334,0.91,0.539,23.315,-45.959,12.268,59.46,20.5
0.225,0.849,0.494,26.367,-50.781,7.996,57.177,19.081
0.152,0.785,0.526,28.076,-52.856,7.69,56.474,15.514
0.051,0.751,0.585,22.949,-46.082,-2.136,55.375,10.98
-0.028,0.717,0.624,16.968,-45.471,4.211,53.873,5.986
-0.114,0.677,0.626,10.864,-54.626,-5.371,51.14,0.944
-0.29,0.657,0.596,26.123,-37.292,-6.47,48.724,-5.852
-0.277,0.774,0.65,22.156,-49.072,-7.751,47.438,-10.647
-0.418,0.616,0.547,16.602,-40.771,4.883,45.726,-16.789
-0.446,0.62,0.547,7.996,-44.373,-10.071,44.199,-21.972
-0.519,0.659,0.527,-0.916,-39.551,7.324,43.489,-25.353
-0.596,0.599,0.442,-1.526,-39.49,7.08,41.091,-31.45
-0.652,0.629,0.403,-22.156,-39.124,5.859,40.541,-35.027
-0.73,0.585,0.291,-3.174,-33.081,2.991,39.48,-39.966
-0.765,0.587,0.152,-2.808,-29.175,15.198,38.374,-45.205
-0.769,0.518,0.013,-7.324,-36.194,16.296,37.344,-49.695
-0.812,0.518,-0.006,-14.587,-31.616,12.39,35.398,-53.763
-0.864,0.507,-0.096,2.258,-17.334,12.329,33.572,-56.411
-0.897,0.42,-0.188,1.282,-3.601,5.127,30.362,-59.304
-0.87,0.443,-0.153,2.38,2.014,-0.732,28.554,-60.595
-0.853,0.466,-0.17,-1.465,7.812,-2.625,27.443,-60.961
-0.858,0.49,-0.102,1.404,15.991,-4.883,27.246,-61.11
-0.849,0.465,-0.094,-5.676,19.348,2.563,28.246,-60.578
-0.853,0.506,-0.005,-14.16,18.616,-3.479,29.307,-60.104
-0.859,0.57,0.055,-4.517,19.653,-3.174,30.692,-59.222
-0.839,0.516,0.035,-3.113,19.043,-8.179,31.191,-58.809
-0.839,0.544,0.068,2.686,19.47,-7.019,32.195,-57.711
-0.799,0.53,0.106,5.798,25.024,1.526,32.838,-56.885
-0.799,0.543,0.139,-7.874,29.907,1.038,32.924,-56.585
-0.779,0.583,0.243,-17.334,36.194,9.521,33.97,-54.805
-0.72,0.57,0.269,-14.526,35.583,-2.869,34.914,-52.806
-0.68,0.646,0.392,-13.184,37.781,-9.949,36.581,-49.282
-0.636,0.604,0.409,-5.066,39.307,-18.188,37.711,-45.803
-0.472,0.678,0.318,-7.874,47.302,-19.47,41.057,-41.289
-0.382,0.701,0.486,-15.625,71.167,-33.447,44.229,-35.182
-0.215,0.834,0.546,-14.099,63.171,-20.02,48.979,-27.185
-0.143,0.846,0.611,13,55.237,-6.714,53.001,-18.451
-0.018,0.82,0.621,-7.202,57.678,0.061,53.289,-10.943
0.074,0.769,0.504,-13.489,49.561,-7.996,54.857,-4.327
0.252,0.867,0.426,7.751,65.43,-15.259,56.714,2.393
0.279,0.868,0.447,-10.498,47.607,-4.089,57.936,8.61
0.428,0.83,0.353,-9.705,47.424,-13.916,58.856,15.378
0.477,0.988,0.614,1.221,9.766,-11.475,56.709,19.738
0.379,0.864,0.337,-3.906,-3.906,-2.563,56.532,21.551
0.435,0.71,0.195,44.861,-1.709,2.441,56.085,24.868
0.439,0.821,0.318,13.489,5.737,3.296,56.168,25.152
0.403,0.811,0.398,20.264,-2.075,0.366,57.085,25.716
0.462,0.733,0.361,-14.404,-5.31,4.028,54.966,27.6
aX,aY,aZ,gX,gY,gZ,Roll,Pitch
0.402,0.811,0.44,11.963,-3.662,-2.258,54.273,25.868
0.489,0.838,0.352,-53.284,4.028,-5.92,53.719,26.327
0.399,0.864,0.266,3.418,3.052,3.052,55.214,26.319
0.426,0.873,0.292,13.245,6.653,10.559,57.19,25.204
0.392,0.773,0.333,2.075,8.484,6.104,57.779,25.527
0.413,0.782,0.35,-12.451,-3.174,-4.944,58.11,24.855
0.441,0.877,0.33,2.991,-8.362,1.648,57.31,25.201
0.422,0.863,0.289,23.071,-20.264,8.301,57.279,25.226
0.383,0.87,0.463,5.737,-37.048,9.155,57.116,24.269
0.319,0.904,0.512,19.775,-55.115,10.315,57.543,22.085
0.212,0.801,0.519,25.391,-52.002,7.263,57.041,19.037
0.138,0.789,0.607,32.227,-47.363,-5.554,55.056,14.849
0.06,0.684,0.654,25.635,-42.48,-13.55,52.874,10.531
-0.042,0.678,0.687,15.076,-44.861,-8.728,49.796,5.459
-0.112,0.663,0.724,18.372,-45.959,-4.822,46.476,0.658
-0.179,0.595,0.739,18.555,-44.189,-9.766,42.925,-4.057
-0.268,0.607,0.692,9.338,-41.016,-5.249,41.21,-8.939
-0.35,0.591,0.741,5.188,-43.823,-9.033,38.988,-13.451
-0.453,0.546,0.608,11.108,-41.199,-2.319,37.513,-18.981
-0.536,0.568,0.603,18.433,-35.461,-0.488,36.781,-24.581
-0.603,0.521,0.518,6.287,-30.09,-1.282,35.323,-30.291
-0.623,0.577,0.473,17.029,-22.4,1.77,35.311,-35.372
-0.685,0.496,0.43,-6.714,-25.146,-0.183,34.249,-39.569
-0.741,0.536,0.407,-0.732,-33.997,16.785,33.469,-43.381
-0.787,0.495,0.257,-7.019,-17.761,11.658,32.993,-47.226
-0.838,0.433,0.204,1.099,-6.775,2.625,30.585,-52.375
-0.847,0.543,0.245,5.127,3.662,-4.395,30.546,-54.456
-0.83,0.496,0.208,-0.366,5.005,0.305,29.856,-56.693
-0.859,0.577,0.254,17.09,22.705,11.536,30.375,-56.389
-0.725,0.444,0.327,-9.521,26.306,19.47,31.047,-54.746
-0.731,0.468,0.396,-34.302,27.771,1.831,30.564,-53.681
-0.724,0.488,0.483,-17.944,36.255,-2.319,30.385,-51.044
-0.629,0.495,0.545,-2.197,42.969,-3.357,29.791,-47.446
-0.548,0.642,0.464,-32.349,53.04,0.488,32.876,-43.051
-0.4,0.655,0.54,-31.677,69.824,-0.122,36.602,-37.013
-0.282,0.666,0.615,-22.949,69.519,-3.418,40.749,-29.6
-0.186,0.794,0.673,-12.085,56.58,3.296,45.663,-21.558
0.003,0.654,0.616,-8.24,59.57,-2.502,46.879,-13.186
0.144,0.759,0.595,-17.7,54.932,-16.602,48.747,-4.815
0.35,0.789,0.591,-62.683,58.899,-32.837,50.22,4.582
0.369,0.866,0.553,-0.305,14.709,-9.399,50.728,12.614
0.387,0.67,0.47,11.047,0.183,-1.892,50.555,18.224
0.343,0.811,0.414,9.644,1.831,-3.601,51.541,21.181
0.402,0.785,0.472,8.606,6.897,0.854,52.227,22.233
0.365,0.78,0.454,1.892,2.136,-1.709,52.372,22.881
0.408,0.829,0.465,4.822,0.061,-1.709,53.663,22.405
0.417,0.736,0.481,33.569,2.869,0.977,51.868,23.565
aX,aY,aZ,gX,gY,gZ,Roll,Pitch
0.351,0.714,0.494,13.977,1.77,-0.61,51.406,23.162
0.382,0.805,0.485,-27.344,3.357,-6.47,51.245,23.177
0.385,0.749,0.446,3.479,1.831,2.563,50.834,23.327
0.384,0.774,0.415,-1.77,3.906,-0.916,52.021,22.891
0.411,0.813,0.406,2.747,8.545,4.089,53.234,23.464
0.406,0.787,0.485,-11.047,-4.517,1.099,52.887,23.883
0.439,0.745,0.488,-6.226,-9.155,2.991,52.067,24.499
0.41,0.781,0.445,12.146,-4.761,5.676,51.674,24.721
0.366,0.783,0.612,14.16,-36.499,7.69,49.987,23.649
0.308,0.859,0.655,19.409,-81.97,11.414,49.801,21.548
0.188,0.797,0.637,53.894,-96.985,17.395,50.31,17.701
-0.162,0.637,0.674,52.246,-61.951,-2.014,49.022,9.891
-0.288,0.484,0.757,32.776,-41.443,-7.996,45.559,0.685
-0.36,0.399,0.784,44.495,-42.664,-16.968,38.433,-9.597
-0.417,0.473,0.737,-6.287,-51.147,-19.653,31.933,-19.01
-0.52,0.48,0.639,8.301,-37.659,-6.409,28.931,-24.701
-0.611,0.468,0.606,7.507,-31.677,-1.953,28.422,-29.973
-0.654,0.435,0.542,11.841,-22.156,-0.427,28.975,-35.131
-0.689,0.432,0.513,6.531,-19.043,-1.465,28.237,-40.192
-0.738,0.394,0.429,-4.15,-34.546,3.357,26.895,-44.796
-0.782,0.488,0.358,-10.132,-35.645,1.16,27.194,-48.424
-0.824,0.469,0.207,-9.949,-33.997,8.362,27.764,-52.421
-0.889,0.479,0.155,-14.771,-23.987,7.324,28.07,-56.25
-0.893,0.442,0.085,-0.061,-8.545,4.028,28.327,-58.915
-0.907,0.449,0.065,5.981,-3.052,1.16,27.373,-61.491
-0.906,0.512,0.112,2.38,-0.671,2.808,27.47,-61.802
-0.885,0.375,0.04,7.324,2.808,-0.732,26.258,-63.336
-0.856,0.496,0.044,6.836,16.418,1.465,27.205,-62.497
-0.907,0.35,0.096,-1.709,25.94,-2.014,25.916,-63.691
-0.772,0.386,0.139,-9.521,33.813,-11.78,25.068,-64.409
-0.805,0.516,0.348,-13.916,31.25,-14.893,27.225,-60.925
-0.696,0.598,0.402,-7.385,33.752,-2.869,29.076,-56.603
-0.693,0.611,0.435,-11.597,36.133,1.221,33.031,-49.955
-0.637,0.533,0.381,-9.583,35.095,2.686,34.916,-45.849
-0.599,0.577,0.465,-7.629,39.673,2.136,36.631,-42.494
-0.493,0.699,0.541,-11.353,54.565,-4.883,38.602,-38.649
-0.395,0.64,0.578,-12.573,63.171,-5.249,40.243,-34.08
-0.208,0.708,0.643,-2.991,72.388,0.549,43.159,-26.226
-0.098,0.706,0.642,-1.77,52.979,4.761,45.728,-18.102
-0.022,0.678,0.703,1.831,45.959,-5.31,45.697,-10.937
0.167,0.738,0.621,7.202,58.838,-15.442,47.269,-2.416
0.28,0.797,0.576,-17.761,61.096,-6.104,48.712,4.818
0.359,0.773,0.624,15.076,40.466,-2.991,48.484,11.329
0.417,0.667,0.569,11.108,9.949,-9.583,47.927,17.763
0.496,0.751,0.611,19.226,4.395,4.089,46.436,22.107
0.435,0.668,0.584,-1.465,0.488,-2.991,44.243,24.61
0.463,0.691,0.545,3.418,2.014,0.305,43.419,26.63
0.422,0.685,0.554,-0.122,-2.197,1.343,43.694,26.67
0.429,0.697,0.521,6.592,0.183,0.305,44.251,26.442
0.45,0.667,0.604,34.363,0.732,-1.709,43.976,26.566
aX,aY,aZ,gX,gY,gZ,Roll,Pitch
0.423,0.713,0.583,1.404,-1.099,1.099,44.15,25.785
0.424,0.683,0.531,-17.273,3.906,-2.075,44.305,25.904
0.425,0.698,0.552,10.681,2.075,-1.343,44.099,25.728
0.413,0.716,0.515,1.709,-1.404,3.418,45.565,25.347
0.425,0.75,0.5,3.784,3.906,3.723,46.622,25.491
0.4,0.762,0.533,8.484,5.249,-0.732,47.543,24.775
0.378,0.888,0.408,-42.786,-15.32,-0.244,50.856,23.703
0.46,0.788,0.587,-23.132,-26.245,9.46,50.561,23.75
0.362,0.853,0.516,-11.475,-54.626,8.179,51.73,22.444
0.225,0.887,0.656,23.01,-57.19,8.606,52.791,19.417
0.097,0.701,0.501,38.452,-48.462,-5.127,51.883,16.2
0.05,0.734,0.671,27.405,-42.419,-9.094,52.274,10.544
-0.04,0.711,0.663,23.56,-64.331,-10.986,50.367,4.843
-0.282,0.654,0.708,21.24,-68.604,-1.404,47.687,-2.652
-0.351,0.682,0.661,-8.85,-65.247,-1.16,45.083,-9.129
-0.462,0.665,0.562,9.583,-41.321,5.554,43.771,-16.823
-0.538,0.626,0.566,9.827,-60.913,5.005,41.362,-24.249
-0.675,0.53,0.421,6.653,-38.086,3.723,39.856,-31.243
-0.707,0.595,0.356,4.883,-20.02,-1.221,38.376,-37.744
-0.745,0.538,0.311,2.869,-20.264,8.85,36.116,-43.337
-0.755,0.504,0.275,6.653,-11.414,4.822,34.189,-48.395
-0.803,0.492,0.261,-1.587,-2.625,0.793,33.285,-50.915
-0.806,0.536,0.276,-2.808,0.427,0.427,32.041,-52.87
-0.793,0.537,0.272,4.944,3.479,1.282,31.778,-53.517
-0.79,0.497,0.271,6.775,7.263,4.333,31.448,-53.917
-0.781,0.477,0.252,7.751,26.428,9.338,31.448,-53.929
-0.764,0.464,0.3,-7.202,33.752,8.24,30.782,-54.184
-0.721,0.456,0.373,-14.587,42.725,5.798,29.981,-53.776
-0.536,0.458,0.515,-16.846,49.377,0.977,30.483,-50.051
-0.541,0.572,0.647,-9.644,64.087,7.08,31.739,-43.754
-0.387,0.633,0.698,-25.085,67.261,-0.793,34.14,-35.378
-0.298,0.619,0.729,-17.151,70.618,9.216,36.069,-27.061
-0.141,0.65,0.72,-10.559,63.477,10.559,38.488,-20.128
-0.007,0.597,0.746,-22.156,58.533,5.188,39.685,-12.301
0.118,0.796,0.641,6.104,76.782,-0.732,42.982,-4.825
0.245,0.721,0.653,-5.615,38.391,0.305,44.945,3.153
0.321,0.778,0.593,-3.784,27.588,-2.441,46.763,9.826
0.369,0.765,0.563,-11.414,4.089,-4.944,48.923,15.034
0.328,0.999,0.609,3.174,7.08,-8.24,50.103,17.273
0.325,0.742,0.451,5.859,1.343,-1.038,51.725,18.731
0.355,0.767,0.513,0.671,6.226,0.305,52.165,19.42
0.359,0.707,0.536,3.723,1.831,0.793,51.973,19.589
0.379,0.779,0.502,0.732,1.282,-2.197,50.671,21.497
0.411,0.75,0.548,22.278,-1.953,2.625,49.304,22.322
aX,aY,aZ,gX,gY,gZ,Roll,Pitch
0.399,0.766,0.443,10.986,-0.122,1.831,49.628,23.133
0.444,0.751,0.468,3.052,1.892,-2.014,50.043,24.268
0.41,0.722,0.375,1.831,-1.404,0.122,50.353,25.387
0.405,0.8,0.391,1.831,2.258,1.038,52.185,25.536
0.422,0.785,0.414,4.211,5.92,0.061,52.401,25.832
0.387,0.976,0.344,-24.658,-6.714,1.221,55.836,24.17
0.441,0.768,0.395,27.466,9.949,-1.709,55.776,24.284
0.472,0.782,0.47,3.296,1.038,0.671,54.44,25.036
0.451,0.781,0.553,-18.066,-35.217,7.446,53.084,25.041
0.33,0.86,0.503,5.31,-61.951,11.902,51.247,24.452
0.219,0.767,0.445,15.32,-44.556,-1.526,52.359,21.427
0.133,0.782,0.545,15.625,-35.767,1.77,53.746,16.639
0.116,0.753,0.664,11.108,-29.785,-12.207,53.967,11.774
0.042,0.755,0.668,19.836,-40.283,-2.991,52.129,7.558
-0.009,0.786,0.755,19.653,-44.067,-4.944,49.288,3.976
-0.128,0.607,0.684,23.621,-57.068,2.319,46.312,0.291
-0.281,0.647,0.647,14.771,-53.894,1.221,45.153,-5.488
-0.409,0.555,0.672,19.897,-46.021,-1.404,42.014,-12.334
-0.504,0.514,0.548,14.343,-51.025,2.991,38.945,-20.981
-0.543,0.57,0.506,6.958,-51.514,-3.601,37.852,-27.815
-0.689,0.558,0.367,-4.639,-48.95,3.54,36.247,-35.262
-0.737,0.518,0.248,-2.197,-40.283,5.066,35.918,-42.169
-0.763,0.588,0.23,-10.803,-44.189,8.789,36.255,-46.29
-0.795,0.592,0.14,3.845,-22.827,7.446,35.683,-50.471
-0.885,0.379,0.005,0.488,-19.226,14.343,32.661,-55.71
-0.869,0.467,0.03,7.446,0.061,-0.427,31.271,-58.042
-0.876,0.497,0.06,3.113,3.113,-0.916,29.416,-60.348
-0.843,0.47,0.017,5.676,9.766,1.648,27.572,-62.372
-0.864,0.436,0.096,0.488,20.691,3.906,28.426,-61.392
-0.831,0.5,0.226,-9.46,27.954,0.427,28.983,-60.323
-0.796,0.508,0.228,-7.629,32.654,3.662,29.52,-59.074
-0.811,0.42,0.236,-15.259,34.851,4.028,28.782,-58.499
-0.762,0.462,0.356,-8.118,41.687,-1.831,29.306,-55.977
-0.654,0.428,0.363,-10.315,40.039,-8.179,29.245,-54.341
-0.57,0.66,0.564,-28.015,45.41,-17.273,31.75,-48.355
-0.501,0.693,0.617,-12.207,39.001,-12.939,35.63,-40.23
-0.433,0.749,0.502,-10.986,42.053,-3.601,40.404,-33.548
-0.357,0.697,0.498,-10.559,56.519,-2.014,44.331,-27.668
-0.256,0.764,0.545,-25.391,54.321,-2.38,47.534,-23.138
-0.12,0.852,0.631,-9.399,58.777,-1.465,51.125,-17.247
0.056,0.779,0.597,-6.775,65.979,-8.667,52.528,-10.005
0.2,0.808,0.537,-12.878,61.157,-17.822,54.154,-1.746
0.257,0.856,0.531,-4.517,33.325,-5.737,54.734,5.581
0.275,0.848,0.459,-0.977,14.099,0.671,55.462,11.374
0.297,0.827,0.401,-1.77,13.489,-5.432,56.804,14.942
0.359,0.793,0.485,6.653,-2.258,-2.93,56.269,17.285
0.289,0.872,0.432,-2.319,-0.793,-8.057,57.163,17.873
0.337,0.848,0.432,3.906,6.104,-7.996,56.99,18.779
0.398,0.781,0.425,10.01,2.136,2.563,55.659,20.286
0.333,0.77,0.465,8.728,1.892,-3.113,55.847,20.091
0.358,0.781,0.438,8.789,2.686,1.038,54.529,21.422
aX,aY,aZ,gX,gY,gZ,Roll,Pitch
0.442,0.723,0.483,20.691,0.244,1.282,52.177,23.313
0.458,0.818,0.515,-23.132,1.77,-0.183,51.282,23.667
0.435,0.719,0.458,3.723,1.404,1.343,50.133,25.287
0.424,0.792,0.396,-7.812,1.282,-1.221,50.068,26.237
0.437,0.771,0.404,9.46,2.38,4.517,51.181,26.161
0.447,0.734,0.476,4.639,0.183,2.502,50.812,26.607
0.471,0.737,0.358,6.775,-18.86,2.075,51.471,27.302
0.404,0.793,0.488,-3.113,-30.518,-0.244,50.933,26.728
0.394,0.849,0.57,1.465,-53.894,3.235,50.638,25.215
0.297,0.78,0.617,24.353,-63.416,-2.686,50.921,22.617
0.173,0.768,0.666,31.25,-70.618,-4.456,50.153,17.762
0.027,0.668,0.668,32.104,-66.772,-8.728,48.896,12.657
-0.094,0.625,0.7,18.25,-61.707,-9.644,46.649,5.928
-0.262,0.639,0.743,6.165,-62.073,-7.141,44.144,-2.299
-0.411,0.664,0.702,-8.545,-54.26,-5.493,41.754,-10.935
-0.549,0.538,0.458,14.099,-59.082,-3.357,40.221,-20.158
-0.602,0.658,0.398,-10.437,-36.438,-7.629,40.405,-28.239
-0.646,0.625,0.363,-9.277,-29.846,6.897,40.337,-35.115
-0.728,0.571,0.273,-4.639,-25.391,15.198,39.202,-41.854
-0.753,0.534,0.204,-9.338,-19.897,11.108,38.543,-45.423
-0.788,0.576,0.159,16.418,0.244,-7.324,36.806,-49.242
-0.785,0.599,0.169,-3.174,4.7,-1.831,35.818,-51.639
-0.735,0.61,0.186,-0.793,11.597,4.395,36.393,-51.604
-0.721,0.635,0.201,3.235,32.654,15.991,37.855,-50.218
-0.76,0.434,0.254,-5.371,35.095,5.005,36.222,-51.159
-0.662,0.615,0.386,-23.621,48.95,-7.751,36.879,-48.882
-0.572,0.709,0.481,-25.208,42.603,-11.047,38.381,-44.805
-0.494,0.594,0.532,-0.488,48.95,-9.644,38.198,-40.883
-0.401,0.771,0.484,-7.874,44.373,-11.23,43.394,-32.974
-0.313,0.749,0.506,-16.235,60.852,-9.338,46.474,-27.224
-0.191,0.849,0.522,-7.263,64.331,-4.272,50.086,-21.257
-0.047,0.793,0.499,-3.967,64.331,-2.563,54.853,-14.268
0.133,0.868,0.499,-4.761,78.369,-22.4,57.58,-6.225
0.346,0.839,0.454,7.141,76.355,-38.33,59.3,3.55
0.495,0.799,0.549,6.836,35.828,-3.052,56.242,13.508
0.425,0.817,0.343,-2.93,5.981,3.418,55.135,20.211
0.432,0.911,0.372,14.099,10.986,-0.671,54.338,24.2
0.43,0.755,0.364,0.732,2.563,-6.165,53.67,25.94
0.418,0.84,0.366,2.258,4.639,-5.676,56.075,25.206
0.48,0.752,0.395,6.47,3.418,3.113,54.657,26.147
0.446,0.8,0.356,3.601,1.343,-2.808,53.717,27.022
0.404,0.795,0.362,20.142,-1.16,4.15,54.308,26.45
aX,aY,aZ,gX,gY,gZ,Roll,Pitch
0.441,0.787,0.375,10.559,0.244,0.244,53.579,27.038
0.423,0.816,0.36,-13.55,4.456,-1.953,54.915,26.01
0.453,0.784,0.381,-2.319,-0.549,1.465,54.514,26.136
0.447,0.797,0.333,5.859,3.174,-0.305,54.359,26.77
0.455,0.815,0.318,-6.47,-0.305,2.869,54.892,26.938
0.479,0.95,0.303,0.244,-0.61,-1.099,55.861,26.988
0.432,1.051,0.172,6.042,-1.221,5.676,59.435,25.595
0.445,0.813,0.375,-3.235,-6.531,2.319,59.302,25.406
0.432,0.841,0.377,-1.892,-11.719,-0.122,59.314,24.88
0.46,0.876,0.411,-7.446,-29.724,0.122,58.249,24.835
0.379,0.821,0.448,5.798,-45.837,2.625,54.905,24.779
0.269,0.876,0.45,1.77,-51.636,1.404,56.214,22.021
0.173,0.813,0.488,14.465,-45.959,6.287,56.895,18.478
0.071,0.79,0.491,19.47,-35.461,6.226,57.78,13.225
0.005,0.746,0.557,15.198,-25.269,0.793,57.516,7.783
-0.046,0.747,0.621,10.681,-17.273,3.54,55.008,3.076
-0.071,0.744,0.613,4.761,-20.813,-2.991,52.978,-0.629
-0.104,0.735,0.646,5.31,-16.663,1.099,50.541,-3.227
-0.157,0.738,0.628,4.761,-19.287,1.099,49.449,-5.565
-0.18,0.708,0.629,0.793,-18.921,2.502,48.723,-7.566
-0.21,0.73,0.607,4.639,-17.7,2.747,48.309,-9.624
-0.283,0.702,0.607,7.874,-13.55,0.732,47.83,-12.354
-0.303,0.7,0.589,3.967,-14.038,2.563,47.296,-14.636
-0.33,0.709,0.617,6.653,-11.902,0.427,46.787,-16.794
-0.35,0.672,0.575,7.202,-13.184,0.122,45.836,-19.045
-0.398,0.704,0.61,4.639,-16.418,1.404,45.251,-20.615
-0.486,0.729,0.639,15.198,-13.367,6.409,44.16,-22.773
-0.453,0.604,0.524,12.085,-25.574,8.789,43.143,-25.195
-0.511,0.581,0.492,-6.592,-27.771,14.282,41.849,-28.089
-0.594,0.654,0.488,4.944,-21.545,8.728,40.932,-31.425
-0.666,0.602,0.429,1.282,-15.442,1.77,39.638,-35.533
-0.687,0.571,0.374,1.221,-21.79,8.423,38.413,-39.362
-0.718,0.603,0.352,-2.38,-23.987,7.69,37.825,-42.252
-0.769,0.566,0.21,-6.287,-24.109,4.761,36.622,-46.331
-0.764,0.588,0.165,-4.089,-10.193,-0.061,36.576,-48.766
-0.805,0.598,0.13,2.136,-0.854,0.793,36.576,-50.646
-0.79,0.533,0.144,5.066,2.869,0.488,35.575,-52.786
-0.792,0.579,0.183,2.136,4.272,-1.709,35.582,-52.93
-0.789,0.599,0.208,4.089,4.15,-1.587,35.426,-52.9
-0.785,0.554,0.194,4.333,4.944,0.244,34.958,-52.996
-0.781,0.617,0.186,3.174,8.728,-0.061,35.932,-51.863
-0.763,0.589,0.196,-0.671,15.747,3.296,36.263,-51.446
-0.763,0.542,0.274,0.244,26.794,3.906,35.665,-51.574
-0.692,0.537,0.341,2.258,25.452,-0.427,35.851,-50.278
-0.679,0.563,0.422,7.751,30.823,4.272,35.307,-48.662
-0.655,0.569,0.403,-5.31,36.377,3.113,35.156,-46.591
-0.583,0.623,0.495,-13.306,43.64,-0.61,36.543,-42.67
-0.487,0.624,0.584,-0.122,49.316,6.531,37.81,-38.274
-0.398,0.577,0.628,-14.832,56.091,2.991,38.652,-33.648
-0.253,0.634,0.633,-11.841,60.974,-0.305,40.239,-26.901
-0.099,0.683,0.718,-14.038,60.974,-2.563,41.501,-19.004
0.01,0.707,0.745,-2.991,52.551,-2.319,42.657,-11.117
0.096,0.713,0.669,-15.381,62.378,-5.005,44.586,-3.611
0.22,0.725,0.608,-27.893,50.171,-8.728,45.795,3.307
0.398,0.822,0.454,-11.597,43.701,-4.822,48.979,10.616
0.445,0.786,0.413,-16.479,38.025,-11.047,51.331,17.276
0.485,0.773,0.435,10.681,15.32,-2.258,51.642,22.983
0.457,0.8,0.348,-0.732,-4.028,0.671,52.616,26.47
0.476,0.787,0.368,6.409,3.784,-0.366,52.292,27.933
0.467,0.742,0.391,11.841,4.211,-2.136,51.854,28.562
0.47,0.605,0.426,9.644,-1.038,-5.005,50.483,29.481
0.499,0.781,0.347,-8.85,2.563,-0.793,49.932,30.153
0.496,0.754,0.36,19.287,5.859,1.892,49.481,30.661
0.492,0.757,0.373,4.089,0.793,5.066,49.536,30.946
0.5,0.76,0.371,13.733,1.648,1.343,51.113,30.458
aX,aY,aZ,gX,gY,gZ,Roll,Pitch
0.51,0.745,0.425,7.812,-0.854,0.366,50.162,30.578
0.526,0.815,0.42,-38.513,5.066,-2.075,50.057,30.366
0.496,0.803,0.363,4.578,5.493,-1.587,50.515,30.149
0.493,0.769,0.361,5.127,6.958,1.16,50.723,30.036
0.529,0.735,0.362,23.682,7.141,5.127,50.881,30.528
0.461,0.993,0.289,-23.865,-26.55,-4.333,53.863,28.964
0.46,0.807,0.439,8.606,-1.465,0.732,53.713,28.3
0.538,0.721,0.463,-4.7,-6.348,3.235,52.231,28.859
0.53,0.786,0.553,5.493,-42.847,-1.77,51.336,28.022
0.425,0.743,0.522,17.029,-58.777,-2.869,47.723,28.217
0.346,0.686,0.547,12.329,-53.101,-15.564,46.564,27.056
0.136,0.656,0.617,6.653,-49.255,-13,47.176,21.547
0.145,0.683,0.707,0.305,-38.94,-3.357,46.64,16.045
0.015,0.646,0.721,-5.493,-66.04,-1.587,45.007,9.789
-0.08,0.722,0.628,-2.075,-63.782,-8.362,45.265,3.254
-0.199,0.792,0.668,-2.014,-56.458,-12.939,46.199,-1.724
-0.276,0.644,0.546,-1.465,-60.608,-12.634,46.953,-8.08
-0.326,0.811,0.488,-21.912,-50.171,-22.522,50.008,-13.126
-0.376,0.779,0.363,-7.812,-49.194,-4.456,51.858,-17.804
-0.465,0.824,0.234,-12.329,-33.569,2.136,54.553,-22.601
-0.448,0.799,0.24,4.578,-15.625,8.789,56.971,-24.929
-0.505,0.75,0.186,4.517,-17.822,3.845,56.774,-28.431
-0.566,0.843,0.138,2.686,-10.986,7.202,56.389,-30.902
-0.538,0.797,0.144,1.221,-5.554,10.986,55.702,-32.195
-0.566,0.727,0.125,1.648,-3.662,2.197,54.125,-34.431
-0.577,0.73,0.11,2.625,1.404,-2.197,53.333,-35.588
-0.57,0.761,0.169,1.282,5.92,-4.578,52.453,-36.308
-0.596,0.837,0.192,9.888,4.089,2.197,52.023,-36.572
-0.583,0.754,0.105,5.737,9.033,6.104,52.145,-36.559
-0.561,0.797,0.204,5.615,19.958,13.489,52.633,-35.654
-0.624,0.678,0.173,11.169,32.349,17.578,51.285,-36.978
-0.569,0.763,0.295,-7.263,46.326,6.958,50.545,-37.088
-0.528,0.704,0.381,1.465,54.199,16.663,49.493,-36.147
-0.488,0.617,0.425,11.353,66.772,14.954,47.28,-35.994
-0.334,0.676,0.593,-4.272,73.975,0.793,47.157,-30.649
-0.187,0.612,0.636,18.982,74.768,1.282,45.647,-24.919
-0.007,0.676,0.82,-12.207,69.763,-1.465,43.971,-15.869
0.108,0.722,0.685,-14.16,63.049,1.099,44.163,-6.261
0.206,0.782,0.631,-10.193,47.363,9.521,45.187,1.74
0.335,0.756,0.559,2.136,67.749,-4.7,46.674,9.148
0.384,0.764,0.555,-4.395,40.405,-0.916,48.889,14.907
0.452,0.729,0.406,-3.662,32.959,-0.061,49.896,20.324
0.53,0.73,0.433,-0.732,35.339,-5.615,49,25.52
0.535,0.839,0.403,-0.977,22.949,2.625,49.501,28.157
0.541,0.769,0.336,4.761,1.16,0.732,49.79,30.817
0.544,0.726,0.284,9.583,1.648,3.723,49.732,32.352
0.566,0.83,0.296,-2.258,-0.366,3.967,51.111,32.517
0.514,0.799,0.343,11.23,9.094,-2.93,51.291,32.727
0.572,0.683,0.349,-0.244,-3.906,5.92,50.133,33.687
0.489,0.724,0.307,6.531,2.625,-7.751,50.499,32.981
aX,aY,aZ,gX,gY,gZ,Roll,Pitch
0.52,0.759,0.337,5.371,0.61,-0.488,50.035,32.796
0.525,0.755,0.345,-1.526,1.709,-1.343,49.503,33.239
0.532,0.745,0.302,-0.244,-0.244,2.075,50.763,32.439
0.51,0.786,0.317,-0.061,15.442,1.282,51.085,32.206
0.532,0.742,0.313,5.188,4.456,0.549,50.955,32.548
0.537,0.772,0.357,1.465,-1.038,9.766,50.914,32.546
0.536,0.701,0.399,12.146,3.845,2.808,49.891,32.6
0.5,0.785,0.335,-13,0.977,-5.188,49.859,32.432
0.532,0.805,0.427,-3.784,-11.353,-2.319,49.725,31.626
0.538,0.756,0.36,0.793,-32.532,-1.648,49.556,31.726
0.495,0.803,0.44,-2.319,-60.425,1.953,50.574,30.433
0.431,0.772,0.477,12.939,-72.266,0.671,50.076,29.217
0.248,0.73,0.61,23.804,-63.843,-2.563,50.227,25.465
0.118,0.699,0.672,34.18,-55.603,-8.85,49.671,19.146
0.082,0.638,0.748,24.658,-62.683,-11.841,46.911,13.066
-0.078,0.525,0.719,19.775,-72.51,-23.071,43.077,5.594
-0.205,0.624,0.674,8.972,-70.984,-30.884,41.467,-1.27
-0.285,0.667,0.638,1.16,-54.688,-12.207,41.021,-7.465
-0.368,0.562,0.527,-6.348,-53.528,-8.789,41.119,-14.996
-0.455,0.627,0.527,2.808,-43.823,-12.329,42.498,-20.955
-0.588,0.676,0.414,-5.31,-41.016,-0.305,43.117,-27.245
-0.684,0.681,0.334,-1.16,-36.621,20.142,42.666,-33.88
-0.731,0.505,0.197,-5.31,-19.775,13.55,40.995,-40.361
-0.715,0.592,0.21,1.16,-6.226,1.404,39.741,-45.049
-0.774,0.627,0.254,0,-0.61,5.066,38.096,-48.115
-0.753,0.601,0.234,0.916,1.587,2.991,36.845,-50.02
-0.741,0.575,0.254,3.052,2.258,1.282,37.426,-49.155
-0.771,0.529,0.238,4.883,4.028,0.61,36.157,-50.213
-0.746,0.591,0.292,-2.136,10.132,-1.77,35.85,-50.157
-0.743,0.592,0.271,-6.47,19.47,9.766,35.722,-49.986
-0.701,0.578,0.292,-9.216,24.902,2.197,35.97,-49.396
-0.669,0.574,0.293,-14.526,35.95,0,37.166,-47.684
-0.575,0.599,0.353,-24.536,42.786,4.333,38.497,-45.536
-0.546,0.578,0.45,12.085,58.105,-6.836,39.246,-42.568
-0.388,0.719,0.532,6.104,63.477,0.244,42.257,-36.353
-0.307,0.662,0.706,-3.357,66.467,4.395,43.112,-29.018
-0.196,0.687,0.717,-16.479,52.551,8.301,43.349,-21.891
-0.095,0.648,0.607,-3.357,52.979,2.747,44.673,-14.79
0.013,0.736,0.625,-7.324,57.861,-6.531,45.127,-8.725
0.153,0.81,0.636,-7.751,54.26,-9.094,48.043,-1.853
0.266,0.846,0.636,-14.648,42.969,-2.38,50.252,4.897
0.288,0.785,0.476,-4.7,38.33,4.089,52.017,10.305
0.385,0.819,0.493,-3.54,35.217,-0.732,52.597,15.441
0.426,0.83,0.419,2.441,33.325,-4.944,53.34,19.516
0.459,0.863,0.467,24.841,10.681,-13.733,53.698,22.391
0.447,0.893,0.393,13.611,-2.747,1.831,54.068,24.101
0.446,0.727,0.429,-18.066,2.869,-4.395,53.329,25.51
0.44,0.841,0.387,11.78,12.756,-3.723,53.558,25.714
0.48,0.69,0.408,6.226,1.465,8.728,52.356,27.126
0.488,0.768,0.428,16.052,0.427,-4.089,50.619,28.284
aX,aY,aZ,gX,gY,gZ,Roll,Pitch
0.481,0.743,0.434,11.536,0.122,0.977,50.437,28.611
0.494,0.761,0.436,-30.701,4.517,-2.258,48.886,29.61
0.463,0.777,0.397,1.831,-0.244,0,49.927,28.886
0.482,0.758,0.367,5.371,3.784,2.014,50.32,29.085
0.468,0.759,0.408,0.916,3.235,5.554,50.775,28.902
0.506,0.748,0.381,19.409,12.329,-4.761,50.943,29.316
0.538,0.555,0.448,12.939,-1.587,-4.578,47.786,31.556
0.501,0.795,0.467,-21.301,-11.719,8.118,47.295,31.162
0.5,0.743,0.485,-4.883,-31.921,1.831,46.328,31.37
0.465,0.824,0.537,0.854,-50.964,-2.075,46.29,29.783
0.369,0.73,0.526,24.475,-55.176,-11.841,48.59,26.439
0.282,0.759,0.624,18.066,-56.213,-10.193,48.455,23.312
0.144,0.701,0.656,24.414,-51.025,-5.493,48.566,18.257
0.024,0.572,0.646,18.066,-36.377,-8.789,46.895,12.497
-0.023,0.581,0.747,5.127,-22.888,-4.578,43.99,6.52
-0.041,0.58,0.794,5.92,-26.428,-9.888,40.558,1.592
-0.103,0.591,0.763,11.902,-29.724,-2.197,38.209,-2.186
-0.171,0.611,0.747,4.639,-31.677,-2.869,37.593,-5.012
-0.216,0.582,0.736,8.85,-26.367,-1.953,37.458,-7.86
-0.297,0.552,0.753,8.057,-24.353,-5.127,36.991,-11.696
-0.352,0.574,0.76,12.573,-28.809,-11.108,36.179,-15.285
-0.363,0.541,0.708,5.127,-39.368,-3.113,35.092,-18.278
-0.506,0.555,0.599,2.441,-38.757,-2.686,34.764,-22.905
-0.531,0.537,0.549,4.272,-28.625,-4.883,35.051,-27.097
-0.592,0.609,0.533,-0.488,-26.123,-12.268,35.805,-31.299
-0.627,0.613,0.492,2.869,-20.691,-4.028,36.466,-35.401
-0.624,0.66,0.438,-0.183,-19.165,-9.338,37.861,-37.034
-0.64,0.636,0.388,-0.366,-19.714,2.197,39.104,-38.472
-0.677,0.653,0.36,26.794,-25.208,11.353,39.86,-39.977
-0.743,0.634,0.306,0.244,-22.583,9.094,40.068,-41.975
-0.792,0.527,0.234,9.338,-4.944,9.705,38.055,-45.859
-0.787,0.548,0.253,-8.057,-2.93,4.211,36.318,-48.766
-0.788,0.567,0.262,0.427,-0.183,3.845,34.714,-51.112
-0.785,0.529,0.251,1.831,2.625,0.977,33.264,-52.841
-0.798,0.53,0.237,1.404,5.127,1.709,33.25,-52.843
-0.793,0.536,0.239,1.77,9.827,0.305,33.1,-53.088
-0.778,0.56,0.329,-6.042,10.742,-4.578,32.93,-52.741
-0.757,0.542,0.299,3.784,8.728,2.502,33.178,-52.11
-0.78,0.523,0.277,-4.517,15.015,0.244,33.124,-51.805
-0.745,0.563,0.324,-5.371,19.836,-0.549,33.565,-50.64
-0.691,0.555,0.393,-1.465,21.851,3.296,33.964,-49.515
-0.695,0.543,0.397,-1.526,22.949,7.263,34.103,-48.342
-0.641,0.563,0.479,-5.554,20.081,5.371,34.822,-45.38
-0.629,0.539,0.492,-3.418,21.118,3.723,34.611,-43.305
-0.618,0.594,0.51,-2.625,19.531,-2.319,35.029,-41.469
-0.566,0.585,0.513,-1.465,24.902,0,35.8,-39.005
-0.555,0.541,0.573,1.282,33.875,-2.563,35.585,-37.577
-0.419,0.576,0.648,-1.404,41.504,-12.329,36.403,-33.904
-0.301,0.578,0.71,0.854,42.236,-0.671,36.676,-28.845
-0.229,0.584,0.734,7.568,41.565,8.484,36.663,-23.21
-0.181,0.576,0.75,-4.211,43.03,11.902,37.099,-17.129
-0.072,0.61,0.794,-17.09,43.762,2.747,37.238,-11.627
0.025,0.672,0.779,-8.972,43.884,0.305,38.312,-6.641
0.119,0.697,0.7,-0.916,46.692,-5.371,40.185,-1.563
0.194,0.701,0.645,-1.831,41.748,3.723,42.458,3.854
0.34,0.682,0.598,1.099,46.997,-0.854,44.455,9.946
0.496,0.767,0.605,6.653,57.678,-1.099,45.528,16.749
0.478,0.705,0.554,13.55,45.715,0.305,45.184,22.022
0.544,0.649,0.529,7.507,6.287,1.221,43.565,27.202
0.522,0.723,0.46,-3.784,-1.099,-1.221,43.823,29.791
0.527,0.712,0.491,26.428,6.714,10.071,43.846,30.959
0.525,0.68,0.456,-12.085,-0.732,-3.784,43.928,32.104
0.526,0.703,0.449,6.592,5.432,3.784,45.16,31.876
0.479,0.649,0.46,-1.526,0.366,0.488,44.73,31.821
0.495,0.601,0.432,17.273,4.944,0.183,44.208,32.414
aX,aY,aZ,gX,gY,gZ,Roll,Pitch
0.517,0.661,0.493,9.949,-0.549,1.343,43.806,32.269
0.521,0.633,0.516,7.019,0.916,0.977,42.592,32.363
0.522,0.604,0.506,-27.039,5.249,-0.305,41.443,32.97
0.513,0.707,0.427,1.465,0.183,2.991,42.533,32.539
0.511,0.712,0.45,-0.305,0.366,-0.366,43.425,32.34
0.521,0.726,0.44,14.771,2.747,2.075,44.932,32.07
0.51,0.695,0.438,8.85,5.737,3.296,46.429,31.619
0.495,0.841,0.322,-22.522,-6.836,-1.526,48.604,30.93
0.511,0.753,0.427,5.981,1.465,-0.916,49.142,30.752
0.535,0.75,0.502,-18.066,-27.771,7.202,48.834,30.557
0.509,0.784,0.522,-4.7,-39.124,-1.404,49.078,29.714
0.412,0.807,0.552,21.912,-51.941,5.493,47.777,28.104
0.3,0.729,0.573,23.987,-54.382,-2.014,47.881,25.122
0.181,0.654,0.626,19.226,-47.058,-3.906,48.074,20.538
0.114,0.653,0.688,12.329,-43.884,-9.644,47.144,15.046
0.024,0.644,0.734,7.385,-41.382,-12.451,44.858,9.37
-0.062,0.621,0.72,6.958,-36.377,-9.277,42.778,3.885
-0.136,0.608,0.735,10.62,-30.457,-6.409,41.277,-0.899
-0.197,0.59,0.747,9.705,-26.184,-2.502,39.77,-5.529
-0.262,0.562,0.73,4.883,-21.24,-1.709,38.4,-9.857
-0.312,0.554,0.743,4.944,-18.188,-2.441,36.827,-13.575
-0.35,0.57,0.717,1.892,-18.005,-0.916,35.909,-16.782
-0.359,0.575,0.697,3.418,-14.099,-0.793,35.581,-19.284
-0.406,0.533,0.688,1.221,-11.78,-2.014,35.032,-21.545
-0.433,0.565,0.686,-0.061,-14.343,-6.287,35.113,-23.401
-0.38,0.588,0.678,11.841,-24.109,-5.554,35.488,-23.914
-0.58,0.551,0.573,-16.235,-48.401,5.371,35.097,-27.553
-0.615,0.58,0.502,-9.705,-13.062,-8.118,35.86,-31.002
-0.591,0.607,0.455,-2.502,-13.428,-5.371,36.938,-34.034
-0.613,0.627,0.404,-10.132,-15.808,2.502,37.501,-38.141
-0.672,0.661,0.361,-4.761,-15.808,13,39.254,-39.56
-0.69,0.604,0.307,-1.16,-14.16,14.343,39.913,-41.228
-0.739,0.556,0.285,2.075,-7.996,10.437,38.879,-44.127
-0.753,0.532,0.261,6.836,-0.732,-2.441,37.176,-47.156
-0.756,0.589,0.28,6.042,2.136,-1.526,35.912,-49.086
-0.767,0.527,0.229,7.69,9.338,-1.343,34.599,-50.979
-0.759,0.603,0.261,8.972,24.353,9.766,35.082,-50.786
-0.688,0.47,0.36,2.38,32.593,10.925,34.56,-50.318
-0.603,0.553,0.47,-9.46,34.79,-0.244,34.688,-48.114
-0.586,0.608,0.548,-16.113,38.391,-1.953,35.752,-43.565
-0.49,0.569,0.552,-0.549,40.344,0.977,35.766,-38.967
-0.458,0.597,0.664,-10.62,38.818,-2.869,36.973,-33.532
-0.368,0.62,0.665,-5.554,36.316,0.61,37.817,-29.15
-0.252,0.592,0.602,-14.038,44.983,5.066,39.003,-24.518
-0.178,0.751,0.596,-5.737,50.903,2.075,42.217,-19.248
-0.114,0.72,0.64,-11.292,49.622,6.592,45.207,-13.952
0.007,0.761,0.686,-6.897,48.462,2.441,47.583,-8.071
0.107,0.72,0.604,-4.089,40.771,1.831,49.386,-2.616
0.169,0.648,0.518,-7.568,45.044,-14.221,49.28,2.59
0.334,0.848,0.447,-2.686,60.486,-18.982,51.861,9.402
0.411,0.903,0.519,5.676,42.053,-1.038,53.301,15.24
0.453,0.769,0.427,8.24,34.241,1.038,53.427,20.301
0.505,0.78,0.453,10.376,22.217,-2.319,52.706,24.267
0.505,0.752,0.432,2.869,4.761,0.305,50.723,26.931
0.515,0.726,0.369,4.089,1.831,-4.517,49.387,29.743
0.478,0.659,0.301,7.996,2.93,0.977,49.007,31.206
0.474,0.76,0.373,4.272,2.38,-3.235,49.65,31.223
0.542,0.732,0.431,8.484,3.113,1.16,49.111,31.851
0.497,0.732,0.407,-0.122,1.77,-2.136,49.079,31.439
0.536,0.704,0.407,10.132,-0.854,1.221,48.284,31.482
0.524,0.724,0.426,25.635,2.197,1.526,47.145,32.15
aX,aY,aZ,gX,gY,gZ,Roll,Pitch
0.485,0.755,0.458,9.888,0.366,0.549,47.657,31.188
0.475,0.783,0.478,-33.203,2.747,-3.418,47.834,30.326
0.429,0.775,0.42,-10.132,-2.38,-1.465,49.262,28.518
0.449,0.783,0.409,2.625,9.216,3.601,50.537,27.279
0.506,0.65,0.468,19.531,9.705,0.916,49.327,28.118
0.456,0.752,0.468,-65.491,-31.311,-1.831,49.264,28.097
0.473,0.785,0.455,-8.972,-30.396,4.395,48.744,28.481
0.423,0.802,0.517,10.742,-41.626,-0.977,48.306,27.655
0.355,0.842,0.573,28.198,-49.805,-2.319,50.324,24.391
0.272,0.733,0.603,36.499,-52.856,-5.005,50.225,21.714
0.156,0.661,0.666,28.198,-46.57,-7.141,48.913,17.401
0.063,0.581,0.827,35.583,-38.879,-10.803,45.173,12.287
0.007,0.509,0.833,23.01,-35.645,-16.113,39.89,7.375
-0.144,0.466,0.782,15.991,-40.771,-18.066,35.484,1.224
-0.235,0.428,0.793,7.69,-33.569,-16.174,31.402,-4.671
-0.325,0.463,0.811,6.653,-26.184,-8.545,29.538,-10.617
-0.349,0.412,0.798,6.653,-18.433,-11.414,27.822,-16.125
-0.39,0.422,0.788,5.615,-17.151,-9.216,26.608,-19.712
-0.394,0.449,0.766,14.709,-18.433,-11.353,26.63,-21.973
-0.476,0.445,0.745,5.005,-20.447,-2.136,26.341,-24.403
-0.513,0.408,0.696,6.775,-16.235,-8.789,26.355,-27.166
-0.521,0.46,0.684,1.465,-17.761,-5.737,26.981,-29.353
-0.595,0.434,0.633,-2.563,-15.564,-0.244,26.738,-32.816
-0.57,0.443,0.653,2.93,-13.916,-0.366,26.807,-34.615
-0.656,0.418,0.558,6.958,-7.69,-2.747,26.998,-37.277
-0.66,0.517,0.567,5.676,-6.226,0.427,27.647,-39.442
-0.675,0.516,0.616,1.648,-4.333,4.578,28.373,-40.003
-0.678,0.41,0.534,6.531,-4.456,2.625,27.937,-42.25
-0.701,0.437,0.551,8.362,0.122,1.465,27.976,-42.661
-0.679,0.393,0.55,2.319,2.258,0.488,26.371,-43.763
-0.671,0.437,0.537,0.793,7.446,3.052,25.679,-44.845
-0.722,0.406,0.552,-0.244,16.052,6.836,25.345,-45.172
-0.641,0.392,0.611,-2.38,17.151,3.113,24.804,-44.321
-0.601,0.387,0.61,-2.502,24.475,23.743,24.842,-43.022
-0.607,0.403,0.656,-5.676,31.799,25.208,24.18,-41.529
-0.544,0.399,0.726,-22.339,29.602,10.498,24.092,-38.153
-0.43,0.519,0.768,-18.372,29.419,7.69,25.893,-33.917
-0.427,0.51,0.796,-12.695,21.851,6.531,27.187,-30.066
-0.383,0.489,0.792,-8.118,20.813,5.493,28.287,-26.172
-0.333,0.515,0.802,-5.981,16.296,4.028,29.937,-22.729
-0.31,0.529,0.777,2.686,16.113,1.648,30.376,-21.079
-0.282,0.468,0.785,3.174,20.508,1.16,30.348,-19.29
-0.228,0.589,0.759,-13.55,20.569,8.301,32.258,-17.029
-0.2,0.515,0.736,-8.545,30.09,7.874,33.107,-15.367
-0.084,0.595,0.769,-5.737,40.161,7.385,34.525,-11.973
-0.056,0.614,0.739,-33.02,45.288,-1.77,37.12,-8.521
0.106,0.685,0.705,2.563,43.518,-2.014,39.159,-3.513
0.2,0.763,0.657,-16.663,52.979,-2.319,42.742,2.433
0.323,0.788,0.555,-6.287,57.983,-1.526,46.37,8.362
0.463,0.747,0.567,3.296,44.617,4.7,47.712,15.712
0.49,0.737,0.466,-5.676,34.668,1.587,48.487,21.351
0.506,0.75,0.384,-2.808,20.874,-0.671,48.677,26.277
0.548,0.774,0.532,-6.531,6.775,-15.442,47.072,29.248
0.514,0.919,0.272,17.212,9.033,-1.465,50.289,29.87
0.585,0.697,0.397,16.602,8.118,0.671,49.57,31.48
0.534,0.716,0.406,0.977,-2.319,3.723,48.881,31.962
0.557,0.796,0.365,6.958,-3.479,3.967,50.021,32.469
aX,aY,aZ,gX,gY,gZ,Roll,Pitch
0.146,0.888,0.015,6.042,7.751,-0.305,80.629,9.322
0.128,1.05,0.022,-34.729,-6.409,0.305,81.878,8.048
0.134,1.059,-0.017,-13.489,-0.61,0.854,82.235,7.756
0.154,1.078,-0.039,-32.959,-0.061,7.202,82.137,7.858
0.119,1.045,-0.024,0.671,-0.366,17.944,82.741,7.216
0.154,1.136,0.024,12.878,0,25.024,82.549,7.413
0.139,1.108,0.114,29.846,-15.076,21.362,82.542,7.393
0.027,0.903,-0.024,31.311,-37.964,27.161,83.888,5.989
-0.067,1.176,0.101,57.861,-32.166,37.231,85.599,3.357
-0.212,1.17,0.04,154.053,-15.32,49.194,86.622,-1.478
-0.045,0.131,0.373,134.216,-5.188,35.889,80.38,-4.967
-0.192,0.519,0.643,-34.973,-39.673,21.484,67.071,-9.125
-0.386,1.412,0.58,-63.416,-44.25,10.071,60.393,-12.976
-0.366,0.696,0.477,212.708,-29.785,12.878,50.221,-15.99
-0.367,0.134,0.33,-97.534,-26.917,20.874,48.81,-20.925
-0.418,0.891,0.434,99.304,-24.78,-11.047,52.747,-22.984
-0.455,-0.077,0.509,84.167,-34.363,0,34.679,-33.789
-0.474,1.382,0.445,-59.021,-43.579,-6.409,43.829,-30.64
-0.615,0.377,0.447,162.292,-61.768,13.733,43.764,-31.841
-0.677,0.719,0.627,-59.631,-52.124,2.991,38.603,-35.255
-0.718,0.536,0.527,179.565,-52.246,3.784,43.137,-34.284
-0.709,0.175,0.417,-76.294,-49.744,0.671,28.108,-45.094
-0.709,0.636,0.326,151.062,-41.87,-2.686,31.367,-45.068
-0.767,0.177,0.209,-74.768,-52.612,16.968,25.101,-53.79
-0.806,0.702,0.226,112.366,-21.24,23.987,27.757,-55.427
-0.897,-0.009,0.301,-3.54,-38.208,36.621,24.206,-59.9
-0.924,0.111,0.332,-21.545,-24.902,22.4,15.423,-66.86
-0.903,-0.42,0.256,39.978,-34.058,34.79,5.93,-71.535
-1.001,0.436,0.182,-152.344,-45.044,3.174,1.754,-73.876
-0.95,-0.012,0.073,196.655,-31.067,3.601,1.722,-77.317
-1.058,-0.057,0.027,-141.846,-48.462,-1.953,-0.751,-82.155
-0.897,0.39,0.078,95.337,-34.302,-17.822,10.942,-77.88
-0.936,0.285,-0.178,78.247,-48.096,-10.559,8.975,-81.025
-0.967,-0.171,-0.185,-90.637,-38.025,6.042,6.607,-82.366
-0.962,0.44,-0.375,-238.159,-28.137,5.188,13.89,-72.974
-0.96,0.388,-0.311,14.282,6.104,0,13.368,-69.769
-1.023,0.021,-0.373,155.029,6.653,31.311,9.387,-70.091
-1.047,0.125,-0.129,72.021,5.005,24.536,13.167,-68.949
-0.925,-0.053,-0.073,-69.519,-7.202,5.249,6.772,-75.696
-0.866,0.358,-0.327,22.156,-2.808,0.854,6.495,-75.358
-1.053,-0.094,-0.196,61.89,1.221,16.541,4.862,-78.392
-1.02,-0.161,-0.217,-31.25,1.892,-0.488,0.739,-78.097
-0.998,-0.194,-0.261,-187.622,-4.822,-8.423,-1.274,-75.671
-0.932,0.807,-0.487,-110.046,-8.362,-19.836,4.912,-73.107
-1.028,-0.031,-0.263,101.563,7.324,5.981,5.777,-71.919
-0.978,-0.179,-0.14,67.383,11.475,22.339,5.615,-72.78
-0.944,0.026,-0.177,46.875,6.653,22.827,8.806,-72.338
-0.984,0.055,-0.109,3.54,8.667,20.874,-1.835,-79.9
-1.016,0.001,-0.139,-12.268,12.024,10.559,-1.394,-81.691
-1.028,0.048,-0.08,-20.325,21.667,3.174,1.856,-82.531
-1.138,-0.016,-0.006,44.678,36.926,15.076,1.2,-85.277
-1.106,-0.563,-0.271,14.648,35.095,21.973,-7.005,-80.396
-0.889,-0.076,0.097,-198.547,21.851,-23.499,-8.284,-80.987
-0.933,0.699,-0.112,-23.315,4.639,-31.494,0.621,-85.86
-1.089,0.059,0.02,49.927,15.015,-17.517,1.695,-85.865
-0.865,-0.577,-0.032,-143.555,17.822,-18.433,1.589,-88.361
-0.766,0.438,0.403,141.968,34.302,-17.212,9.581,-79.475
-0.824,-0.697,-0.097,-94.116,53.528,-11.353,-12.33,-76.798
-0.826,1.069,0.166,-104.187,44.189,-85.144,4.029,-81.357
-0.79,-0.11,0.258,-124.207,30.579,-41.565,12.023,-72.47
-0.761,1.486,0.695,9.888,46.265,-63.66,27.483,-57.68
-0.654,-0.244,0.134,-111.023,53.04,-24.17,33.858,-50.121
-0.555,0.849,0.186,101.257,57.19,-52.368,33.09,-49.537
-0.365,0.914,0.171,-212.524,42.236,-70.74,48.936,-35.856
-0.453,0.043,0.183,147.461,53.284,-57.312,36.2,-49.975
-0.224,1.468,0.216,-174.194,41.565,-77.026,61.671,-25.402
-0.214,0.456,0.095,-37.842,44.067,-49.561,63.764,-22.996
0.003,1.744,0.277,-54.565,36.133,-88.562,72.418,-13.182
0.054,0.356,0.035,-9.766,41.321,-55.908,79.715,-5.342
0.193,1.247,0.143,45.715,21.24,-47.119,81.743,0.537
0.24,1.047,0.25,3.662,14.343,-33.63,78.943,6.286
0.275,1.073,0.177,5.371,9.644,-20.813,75.344,11.435
0.283,0.899,0.097,-3.845,3.967,-9.583,74.351,12.931
0.27,0.97,0.184,-30.396,-5.981,-10.803,72.196,14.766
0.304,1.092,-0.011,-18.188,-2.502,-2.38,73.213,15.58
0.211,0.919,-0.038,5.371,2.38,10.071,74.273,15.358
0.284,0.941,-0.003,2.502,6.653,3.967,74.648,15.233
0.286,0.957,0.065,-0.549,8.179,3.54,74.479,15.52
0.062,0.886,0.026,-57.861,-14.771,-13.245,77.153,12.824
0.235,1.04,-0.006,-14.282,-5.493,-0.916,77.176,12.767
0.218,0.928,-0.072,-34.424,-14.099,-1.709,78.137,11.861
0.289,0.956,-0.057,-34.607,-5.127,0.977,77.987,11.905
aX,aY,aZ,gX,gY,gZ,Roll,Pitch
0.193,0.957,-0.148,-2.563,8.545,10.62,75.878,13.509
0.174,0.745,0.132,14.465,-2.625,5.493,76.124,13.688
0.318,1.213,-0.124,-64.148,12.39,-1.953,75.587,14.121
0.328,1.034,0.031,-20.691,14.893,4.7,75.529,14.385
0.219,1.033,-0.056,12.39,-6.958,12.451,75.515,14.483
0.237,1.139,-0.051,24.536,-5.981,15.442,75.77,13.996
0.161,1.057,-0.14,11.536,-11.963,30.579,77.187,12.486
0.109,1.131,-0.141,-3.723,-11.414,34.668,79.304,9.427
0.105,1.057,-0.164,28.137,-11.536,42.542,79.811,7.907
0.054,1.048,-0.077,49.5,-13.245,49.561,81.052,5.677
0.098,1.017,-0.054,120.178,-12.024,64.758,82.373,4.904
-0.089,1.616,0.15,219.482,-10.254,58.899,87.312,2.043
-0.458,0.05,-0.004,225.281,-29.358,54.626,83.953,-6.042
-0.397,0.365,0.628,-54.077,-52.063,11.353,69.962,-15.12
-0.38,1.087,0.579,10.071,-52.307,-12.817,58.729,-21.288
-0.479,0.214,0.482,167.542,-54.993,8.728,35.518,-35.491
-0.529,0.661,0.451,-186.829,-69.702,2.93,39.867,-29.453
-0.649,0.809,0.182,291.504,-45.044,16.052,46.294,-32.102
-0.611,0.896,0.326,-102.6,-56.702,10.315,43.845,-37.507
-0.77,0.682,0.352,224.365,-52.551,15.808,46.669,-37.645
-0.712,0.63,0.434,-74.89,-38.391,18.799,44.858,-39.874
-0.788,0.521,0.28,135.01,-30.884,13.367,40.463,-43.241
-0.785,0.349,0.573,-148.193,-20.508,9.033,32.182,-48.229
-0.803,0.808,0.328,163.635,-27.588,11.719,33.522,-47.631
-0.911,0.066,0.487,-77.148,-36.621,28.503,25.334,-53.71
-0.956,1.253,0.224,88.013,-42.358,6.042,33.012,-49.462
-0.919,-0.352,0.397,-35.095,-36.072,51.697,24.671,-57.541
-0.995,0.54,-0.046,18.616,-52.734,4.395,21.001,-64.004
-0.908,-0.028,0.094,-25.879,-52.002,16.968,20.218,-67.52
-0.923,0.376,-0.115,-80.566,-49.622,14.16,8.105,-80.463
-0.975,0.226,-0.203,81.299,-42.48,44.25,16.297,-73.221
-1.02,-0.216,0.063,-72.754,-31.372,26.917,5.341,-84.148
-0.921,0.174,-0.247,18.311,-17.151,8.85,8.236,-78.916
-0.901,-0.657,-0.236,99.792,-7.019,31.372,-6.955,-78.434
-0.916,0.082,-0.305,-97.595,-12.268,3.174,-9.15,-75.793
-1.008,-0.516,-0.208,47.18,3.052,21.667,-13.307,-70.127
-0.947,0.047,-0.211,-45.959,1.404,-4.822,-15.012,-69.393
-0.966,0.012,-0.347,74.707,4.639,9.277,-5.386,-73.517
-0.988,-0.681,-0.226,-18.433,9.583,24.597,-15.759,-68.879
-0.962,-0.174,-0.169,-104.736,-2.869,-17.578,-11.317,-72.18
-0.946,-0.088,-0.235,65.796,0.122,-17.334,-13.163,-70.733
-0.934,-0.052,-0.165,68.237,15.259,-2.319,-14.282,-71.597
-1.007,-0.096,-0.171,84.595,23.254,12.085,-5.985,-77.593
-1.008,-0.319,-0.149,-8.606,30.273,7.874,-7.99,-76.849
-1.176,0.462,-0.014,-43.762,29.297,-19.653,-0.082,-83.098
-0.957,-0.256,-0.084,49.194,24.963,-8.728,-2.878,-83.562
-0.896,-0.021,0.011,-230.53,3.296,-33.447,-1.907,-86.148
-1.042,0.512,-0.066,4.883,3.723,-34.058,9.712,-80.055
-0.885,0.176,-0.007,93.018,23.254,-17.151,6.204,-83.415
-0.855,-0.305,-0.018,-126.221,28.259,-24.78,5.618,-84.247
-1.011,0.556,0.243,29.053,37.17,-50.476,13.894,-75.921
-0.868,-0.571,0.115,-146.606,26.184,-35.034,-2.272,-84.269
-0.757,0.502,0.319,62.317,40.833,-68.42,2.933,-78.911
-0.753,0.249,0.043,-180.115,29.297,-66.04,11.993,-73.088
-0.686,0.731,0.182,15.503,41.199,-74.646,16.206,-69.834
-0.684,-0.255,-0.031,13.977,46.814,-34.546,22.747,-65.212
-0.569,1.451,-0.003,-142.761,32.471,-87.097,38.864,-50.956
-0.476,0.992,0.089,30.273,50.842,-67.932,50.253,-39.518
-0.259,0.929,0.062,-202.209,48.767,-71.777,57.409,-32.528
-0.185,1.131,0.09,97.046,53.162,-77.454,71.469,-18.289
0.004,0.284,-0.175,-85.327,77.942,-56.274,74.594,-15.365
0.001,1.394,0.191,53.406,44.189,-76.843,82.818,-6.705
0.248,0.537,-0.111,-101.99,42.786,-49.255,88.838,1.16
0.344,1.142,0.093,181.152,11.353,-25.879,79.905,10.095
0.294,0.53,0.092,-21.545,17.822,-27.649,75.587,13.796
0.332,1.115,0.105,-1.587,4.456,-20.874,69.671,20.104
0.346,0.863,0.183,25.269,-7.263,-6.714,69.036,19.678
0.276,0.834,0.018,14.954,-7.568,2.747,68.6,20.346
0.296,0.916,0.004,7.935,2.563,3.662,70.945,18.478
0.271,0.962,0.061,-7.446,5.005,6.47,71.186,18.347
0.277,0.976,0.153,-4.944,7.019,5.31,72.764,16.858
0.181,0.807,0.173,9.46,5.188,1.221,73.338,15.543
0.257,1.078,0.199,10.681,-6.958,-9.705,73.311,14.298
0.226,0.961,0.032,-36.865,-10.01,0.549,74.044,13.689
0.272,0.976,0.051,-54.871,-11.536,4.578,74.775,13.664
aX,aY,aZ,gX,gY,gZ,Roll,Pitch
0.272,0.956,0.076,-59.814,1.465,4.761,74.681,14.447
0.192,0.797,-0.074,-0.366,-12.329,6.775,75.338,14.604
0.202,1.112,-0.169,-17.151,20.935,-3.357,76.179,13.714
0.365,0.947,-0.035,-13.672,13.916,7.935,74.59,15.114
0.306,1.017,-0.101,-28.748,24.414,22.949,73.723,15.308
0.202,1.029,-0.19,-32.532,25.818,44.373,73.905,14.585
0.111,1.021,-0.201,6.226,3.174,51.27,74.446,13.677
0.028,0.961,-0.231,41.626,-9.705,58.044,76.453,9.001
0.039,1.218,-0.025,104.797,-21.729,57.861,79.933,5.089
-0.01,0.906,0.038,159.058,-42.114,55.359,83.727,2.334
-0.189,0.55,0.15,-74.768,-41.748,34.729,87.666,-2.073
-0.288,1.607,0.098,26.367,-46.997,19.836,83.098,-5.963
-0.482,0.46,0.072,157.471,-47.546,38.33,73.662,-15.3
-0.471,1.589,0.055,-84.412,-38.391,14.832,70.638,-18.704
-0.527,0.777,-0.003,210.876,-38.757,24.231,68.101,-21.72
-0.539,1.157,0.161,-80.627,-41.138,18.982,62.892,-26.821
-0.571,0.818,0.254,176.514,-34.851,23.437,63.554,-25.775
-0.65,0.852,0.38,-176.147,-43.335,27.039,56.12,-31.789
-0.608,0.875,0.297,182.678,-37.781,30.09,54.841,-31.528
-0.714,0.193,0.381,-1.77,-30.151,31.799,43.737,-39.951
-0.783,0.77,0.27,104.98,-29.785,33.264,41.335,-42.559
-0.797,0.043,0.344,164.673,-23.193,38.391,30.637,-51.813
-0.78,0.053,0.516,-78.186,-42.48,26.489,17.193,-59.027
-0.917,0.716,0.301,19.714,-43.701,16.418,23.875,-56.936
-0.875,0.022,0.175,148.437,-38.147,24.292,12.974,-64.948
-0.923,-0.102,0.268,-137.634,-60.12,15.381,10.519,-67.667
-1.015,0.373,0.003,109.192,-38.208,26.794,14.865,-71.394
-1.004,-0.171,0.101,-8.057,-29.541,26.184,1.826,-81.646
-1.039,0.006,0.069,-22.034,-26.672,10.742,1.521,-83.499
-1.007,-0.408,-0.065,113.892,-12.268,11.169,-2.817,-86.798
-1.006,-0.089,-0.035,-106.995,-32.227,0.977,-9.275,-80.672
-0.978,0.088,-0.11,52.307,-26.123,3.296,-5.713,-83.947
-1.056,-0.092,-0.074,19.775,-12.756,12.207,-7.042,-81.901
-0.958,-0.349,-0.12,-53.955,-19.043,0.122,-6.288,-82.065
-0.928,0.229,-0.314,-123.047,-33.02,-17.09,-1.792,-80.856
-0.933,0.344,-0.295,97.473,-8.728,15.686,1.908,-78.14
-0.99,-0.068,-0.21,74.341,-0.244,19.165,2.279,-75.965
-0.95,0.18,-0.06,-121.399,-12.146,-10.864,9.958,-73.662
-1.057,0.541,-0.386,145.63,-1.648,2.991,13.847,-70.682
-1.048,-0.918,-0.209,-64.209,11.658,38.452,-3.665,-77.391
-0.826,0.224,-0.399,65.43,-15.93,-13.672,0.372,-74.797
-1.008,-0.595,-0.206,-16.541,5.981,23.926,-10.298,-70.242
-0.789,0.065,-0.23,93.567,2.563,-7.629,-17.78,-66.335
-0.925,-0.323,-0.252,-76.538,-1.404,2.808,-9.625,-70.499
-0.943,0.523,-0.447,32.837,1.099,-11.169,-4.909,-72.127
-0.848,-0.428,-0.279,-99.915,-2.136,3.784,-2.511,-70.826
-0.883,0.037,-0.23,133.484,19.348,-5.615,-2.877,-71.222
-0.973,-0.674,-0.156,-45.471,21.301,5.432,-8.084,-71.266
-0.867,-0.199,-0.291,-44.006,24.963,-34.485,-18.877,-66.062
-0.951,0.225,-0.222,38.696,26.917,-51.88,-9.175,-73.512
-0.943,-0.299,-0.121,-108.887,25.818,-51.819,-13.93,-71.725
-1.197,0.873,-0.223,-121.948,12.329,-95.886,8.417,-75.198
-1.086,0.358,-0.008,120.056,35.095,-69.58,15.336,-72.827
-0.846,0.551,-0.048,-221.313,8.484,-84.839,19.905,-69.353
-0.858,0.662,-0.131,118.896,22.766,-76.721,31.364,-58.148
-0.583,-0.468,-0.057,-119.141,43.457,-36.682,18.052,-71.496
-0.609,1.442,-0.011,144.348,50.781,-57.8,36.954,-52.771
-0.489,0.6,-0.052,-137.085,46.631,-62.744,41.23,-48.451
-0.441,0.726,-0.06,24.536,56.213,-69.885,47.205,-42.605
-0.287,0.205,-0.122,-59.387,53.406,-63.232,58.206,-31.48
-0.2,2.305,-0.17,4.639,55.664,-109.741,68.978,-20.181
-0.12,0.718,-0.077,32.593,53.04,-60.181,74.011,-14.772
0.001,1.621,0.073,-5.432,33.63,-61.829,82.073,-7.122
0.12,0.947,0.15,139.221,29.114,-48.584,87.941,-2.044
0.229,1.093,0.171,-96.497,16.602,-50.293,84.889,3.003
0.226,1.04,0.068,20.813,14.771,-35.706,81.06,6.962
0.286,0.848,0.08,36.682,15.015,-33.569,75.97,12.296
0.304,0.912,0.102,2.563,8.606,-24.109,73.841,14.964
0.328,1.086,0.153,9.583,1.77,1.404,72.649,16.338
0.313,0.919,0.031,4.395,5.493,6.409,71.154,18.04
0.328,0.913,0.053,-9.705,9.46,3.418,71.008,18.33
0.286,0.91,0.066,4.7,5.981,2.686,71.362,18.099
0.287,0.961,0.079,-3.052,4.761,1.587,71.547,18.123
0.301,0.942,0.075,4.7,3.479,1.404,71.697,17.834
0.408,1.258,0.117,-7.202,5.493,-3.357,71.966,17.422
0.288,0.86,0.039,4.517,-10.193,-1.709,71.813,17.662
0.3,0.955,0.007,-27.893,-2.747,0.183,71.822,17.869
0.287,0.975,-0.022,-12.024,1.465,-1.953,72.315,17.575
0.293,0.947,-0.07,-8.362,1.526,0.793,72.631,17.355
aX,aY,aZ,gX,gY,gZ,Roll,Pitch
0.157,0.886,-0.142,-22.705,-3.723,7.08,74.254,15.375
0.175,0.658,0.04,15.076,4.822,-8.423,74.948,14.718
0.262,1.071,-0.079,24.048,8.362,-8.667,75.499,13.945
0.279,1.081,0.032,-9.338,9.46,0.488,76.533,13.273
0.376,0.946,-0.058,-63.11,7.385,9.888,73.758,16.213
0.25,1.024,-0.122,-53.772,6.47,23.621,73.911,15.787
0.238,0.912,-0.262,-27.283,3.479,38.208,72.955,16.02
0.189,0.993,-0.208,57.434,6.958,51.392,72.279,15.015
0.087,1.153,-0.126,97.473,0.427,62.5,75.584,10.456
-0.014,0.828,0.02,144.348,-25.208,64.27,78.885,7.266
-0.109,0.527,0.299,61.462,-49.805,51.331,87.475,2.513
-0.128,1.199,0.118,-148.865,-69.397,43.152,84.582,-2.515
-0.295,0.865,0.045,255.493,-58.167,37.231,77.97,-8.981
-0.386,0.584,0.321,-159.058,-36.682,24.475,69.196,-15.67
-0.419,1.003,0.223,223.816,-48.096,8.667,68.789,-18.272
-0.463,0.012,0.366,-46.143,-53.955,23.01,53.381,-30.591
-0.545,1.136,0.342,150.024,-51.514,21.179,51.144,-31.073
-0.637,0.06,0.447,-37.109,-45.471,38.696,41.702,-38.376
-0.712,0.748,0.459,58.594,-49.377,31.616,34.398,-42.896
-0.684,0.005,0.492,26.672,-49.194,28.992,32.074,-44.61
-0.886,0.824,0.137,-107.3,-66.345,20.63,26.408,-52.435
-0.827,0.534,0.148,198.425,-52.795,30.64,32.251,-51.797
-0.963,0.518,0.235,-177.612,-62.256,9.094,28.202,-57.545
-0.969,0.514,0.112,168.579,-48.706,26.55,32.861,-55.856
-0.974,-0.583,0.114,24.231,-45.227,37.476,14.563,-72.797
-0.989,0.774,-0.146,-59.631,-44.617,-1.16,17.377,-72.04
-1.042,-0.603,-0.073,91.675,-26.123,36.316,1.474,-88.523
-1.056,0.352,-0.2,-79.468,-35.889,11.292,-0.84,-85.617
-1.091,-0.11,-0.21,98.694,-18.738,22.217,5.583,-79.791
-1.027,-0.106,-0.043,-41.687,-13.733,16.602,-6.262,-80.534
-1.097,0.459,-0.307,48.157,-7.08,-2.991,7.813,-77.265
-1.006,0.049,-0.188,-15.991,-9.766,4.456,3.902,-79.23
-0.892,0.18,-0.234,-159.729,-29.663,-29.053,8.091,-76.486
-0.867,0.364,-0.309,147.095,2.991,4.578,14.741,-69.068
-0.943,-0.363,-0.005,-105.103,-15.381,11.963,3.485,-78.267
-0.807,-0.025,-0.262,175.659,3.479,8.545,2.484,-76.791
-0.955,-0.654,-0.159,-139.404,-12.817,24.536,-10.534,-74.364
-0.745,-0.201,-0.301,97.534,0.122,6.226,-19.429,-67.342
-0.936,-0.252,-0.173,-139.771,-7.202,9.216,-17.668,-67.254
-0.791,-0.148,-0.324,184.082,11.78,6.409,-19.443,-65.261
-1.046,-0.358,-0.252,-149.963,-6.287,12.329,-14.644,-67.989
-0.848,-0.457,-0.423,154.358,19.104,-0.671,-17.711,-64.999
-0.887,-0.409,-0.326,-132.019,11.597,9.094,-19.806,-61.891
-0.899,0.05,-0.335,-90.027,9.705,-31.921,-16.699,-64.197
-0.895,0.033,-0.232,0.854,11.658,-21.301,-11.753,-66.539
-1.006,-0.14,-0.134,85.815,26.428,-6.592,-6.937,-72.989
-1.06,-0.297,-0.084,24.841,33.875,7.385,-5.125,-77.429
-1.059,0.055,-0.161,-230.652,25.696,-42.725,-4.892,-80.079
-0.996,0.29,-0.005,62.805,20.142,-33.63,-1.269,-84.52
-0.925,-0.596,-0.07,-30.396,20.63,-19.348,-7.707,-81.068
-1.068,0.797,-0.022,31.677,28.259,-65.125,7.648,-81.53
-0.837,-0.531,0.061,40.771,34.241,-40.1,-0.609,-89.185
-0.868,0.741,-0.23,-38.513,18.066,-86.121,6.328,-82.498
-0.769,-0.083,-0.041,-11.414,30.396,-74.097,14.601,-74.935
-0.72,1.63,-0.457,-115.173,6.47,-133.972,28.311,-59.518
-0.602,0.678,-0.119,65.674,40.1,-101.563,43.944,-43.807
-0.324,1.143,-0.326,-116.272,35.828,-122.253,52.419,-34.62
-0.306,1.103,0.023,59.692,60.181,-100.403,64.825,-22.825
0.051,0.801,-0.155,-202.271,68.542,-99.792,70.567,-17.397
0.126,1.882,-0.039,74.524,35.828,-72.205,82.233,-5.231
0.197,0.411,-0.255,-57.739,38.818,-39.673,84.146,0.91
0.232,0.855,-0.114,154.175,19.653,-28.931,78.187,8.623
0.195,0.528,-0.179,79.224,13.733,-24.902,75.493,11.383
0.313,1.001,0.076,25.085,-0.854,-7.324,69.445,18.283
0.312,0.963,-0.01,16.541,13.55,-41.321,72.183,17.406
0.296,0.901,0.079,3.418,4.15,-4.028,71.785,18.207
0.344,0.978,0.033,-18.433,-2.014,-1.038,71.613,18.2
0.293,0.901,-0.043,-1.526,3.479,4.517,71.575,18.403
0.287,0.955,-0.03,11.902,11.108,3.784,71.903,18.087
0.276,0.967,0.03,8.667,10.437,4.883,72.482,17.517
0.299,0.95,0.096,1.892,11.841,2.747,72.957,17.024
0.266,0.918,0.101,18.921,7.263,0.732,73.194,16.547
0.162,0.972,0.082,3.601,3.296,-5.188,74.595,14.705
0.259,0.842,-0.02,-0.305,-4.028,2.991,74.533,14.946
0.246,0.98,0.061,-12.024,4.395,1.16,75.523,14.067
0.263,0.933,0.064,-13,-14.282,-1.099,75.728,13.985
0.288,0.935,-0.024,-35.828,-10.498,-2.991,73.995,15.957
0.249,0.9,-0.058,-23.987,-5.798,2.625,74.399,15.587
aX,aY,aZ,gX,gY,gZ,Roll,Pitch
0.224,0.765,-0.054,14.893,0.488,9.033,73.81,16.15
0.179,1.065,-0.008,-38.94,-2.258,7.019,75.46,14.37
0.235,1.031,-0.147,-18.677,10.132,4.333,76.159,13.244
0.279,1.203,-0.032,-4.456,4.333,24.841,76.86,12.702
0.149,1.117,-0.022,15.076,-11.047,46.448,78.868,10.799
0.128,1.399,0.037,142.883,-13.123,58.35,80.342,9.453
0.047,0.652,0.124,65.552,-21.362,59.021,82.024,7.854
-0.064,1.063,0.034,-136.108,-33.447,42.847,85.785,3.509
-0.11,1.03,0.152,144.653,-29.114,36.011,85.217,0.012
-0.196,0.337,0.078,-40.894,-32.166,44.556,80.705,-5.933
-0.203,1.463,0.155,132.935,-46.265,43.579,79.676,-8.32
-0.393,0.235,0.176,-23.682,-50.354,60.547,70.905,-16.13
-0.608,1.723,0.055,63.904,-51.636,46.387,68.586,-20.28
-0.623,0.105,0.055,132.324,-49.133,55.664,61.949,-27.203
-0.718,1.37,0.194,-22.522,-44.006,40.588,55.15,-34.043
-0.752,0.266,0.085,179.26,-40.161,47.424,51.771,-37.772
-0.86,0.887,-0.234,-134.399,-52.49,12.024,41.643,-48.321
-0.798,0.465,0.084,190.247,-41.626,35.4,43.663,-46.287
-0.896,0.428,0.208,-93.567,-46.753,19.043,31.729,-58.185
-0.912,0.255,0.166,162.048,-40.466,21.912,30.368,-59.428
-1.011,0.564,-0.092,-113.037,-55.176,4.211,25.23,-64.156
-0.954,0.174,-0.025,168.274,-37.781,20.63,20.611,-69.038
-1,0.378,0.005,-111.023,-39.978,14.954,19.485,-70.499
-1.006,0.198,-0.119,96.985,-11.597,28.259,18.287,-71.423
-1.017,-0.128,-0.009,-27.1,-5.31,28.137,8.878,-80.873
-0.906,0.319,0.002,-158.875,-20.508,-2.502,11.026,-78.836
-1.019,0.314,-0.178,114.197,-5.371,10.315,10.062,-79.025
-0.946,-0.204,0.018,-129.7,-15.015,10.132,4.425,-84.939
-0.901,0.13,-0.243,142.944,-20.02,6.226,8.398,-79.651
-0.983,-0.548,-0.109,-28.259,-21.912,21.912,-4.518,-81.191
-0.946,0.014,-0.289,-154.053,-50.476,-14.587,-9.012,-77.031
-0.896,0.049,-0.397,184.753,-14.404,21.912,-5.229,-73.597
-0.964,-0.585,-0.257,-102.112,-11.353,42.175,-15.218,-68.396
-0.967,0.87,-0.554,-30.396,-14.404,-27.344,4.911,-67.832
-1.137,0.541,-0.606,224.121,14.832,27.344,11.358,-63.065
-0.993,-0.41,-0.102,-182.8,-9.46,13.916,5.478,-68.809
-0.613,-0.061,-0.454,112.976,7.812,-6.47,12.944,-62.203
-0.877,-0.806,-0.265,-207.153,-0.427,2.014,-10.726,-66.076
-1.003,0.896,-0.466,121.521,22.278,-22.888,-5.878,-68.934
-1.061,-0.81,-0.288,28.87,16.663,19.409,-11.495,-64.868
-0.876,0.599,-0.476,-143.005,-3.54,-37.292,-1.707,-68.551
-0.953,0.015,-0.303,107.178,14.771,-33.447,9.483,-66.601
-0.932,-0.088,-0.274,-129.211,19.226,-38.879,-4.024,-70.27
-0.943,-0.109,-0.212,-152.283,22.949,-46.326,6.073,-70.22
-1.078,0.493,-0.113,48.523,26.55,-31.006,4.438,-76.265
-1.059,0.085,-0.123,55.42,26.245,-25.085,5.352,-78.495
-1.131,1.049,-0.022,-69.702,37.964,-49.744,19.727,-69.311
-0.849,-0.144,-0.021,-26.55,30.884,-33.752,19.776,-69.863
-0.746,0.483,-0.012,-233.093,5.737,-63.293,21.246,-68.593
-0.886,0.533,0.002,107.361,26.245,-66.223,28.004,-61.985
-0.554,0.517,-0.277,-271.729,13.55,-98.755,24.48,-64.887
-0.593,0.978,0.099,196.777,46.204,-97.046,42.036,-47.82
-0.439,0.61,-0.281,-264.648,39.246,-124.573,46.387,-42.71
-0.429,0.686,-0.173,113.22,43.884,-106.689,52.885,-35.151
-0.075,1.205,-0.152,-161.438,47.913,-122.803,65.054,-23.606
-0.011,1.345,0.034,70.19,56.702,-102.6,73.856,-13.794
0.4,0.557,-0.34,-155.823,51.453,-62.927,80.385,-1.722
0.139,2.271,0.063,111.694,31.677,-61.462,83.624,4.797
0.253,0.077,-0.273,-25.94,17.273,-20.935,77.582,10.338
0.283,1.031,-0.05,79.712,-4.578,-8.24,72.63,15.113
0.189,0.807,-0.193,89.478,1.099,-21.362,76.886,11.596
0.238,1.27,0.136,54.993,-7.751,-9.521,71.997,16.707
0.23,0.914,-0.004,13.977,4.395,-5.249,76.762,13.144
0.275,0.964,0.046,0.488,11.902,5.493,76.741,13.257
0.255,0.94,0.116,-4.333,11.963,3.967,75.724,13.682
0.251,0.966,0.144,-1.648,11.047,1.953,74.409,14.922
0.333,0.832,0.109,-22.217,0.854,-5.127,72.18,16.663
0.238,0.939,0.079,11.169,-2.686,-5.554,72.382,16.226
0.226,0.861,0.041,-19.104,-5.127,-5.127,72.804,16.17
0.249,0.961,0.051,-59.57,-6.531,0.488,73.215,16.197
0.267,0.925,-0.033,-21.118,-5.737,-1.038,74.968,14.882
aX,aY,aZ,gX,gY,gZ,Roll,Pitch
0.235,1.038,0.112,37.048,7.263,1.587,75.318,14.456
0.192,1.014,0.025,-27.832,-6.897,8.301,76.358,13.458
0.225,1.017,-0.151,-36.438,1.16,16.113,77.031,12.952
0.296,1.38,0.054,19.165,-3.601,33.875,77.969,12.02
0.111,0.837,-0.115,110.107,-23.621,55.481,78.756,10.964
0.038,0.409,0.048,-85.266,-16.724,62.866,79.286,10.41
-0.049,1.449,-0.068,-52.979,-34.058,59.448,84.334,5.554
-0.116,1.215,0.025,138.672,-49.927,66.772,88.38,-0.218
-0.323,1.073,0.103,-112.671,-43.213,63.354,83.652,-6.172
-0.291,0.859,0.024,197.571,-42.542,65.186,80.34,-9.605
-0.449,-0.079,0.113,-16.479,-34.058,66.345,68.517,-20.936
-0.609,0.995,0.146,138.428,-33.569,33.081,58.936,-30.182
-0.593,-0.053,0.184,62.5,-30.823,37.537,40.755,-47.43
-0.66,1.357,0.071,52.429,-27.649,26.55,43.15,-45.408
-0.746,0.522,0.056,147.156,-31.067,42.419,46.814,-42.383
-0.807,0.528,0.365,-89.478,-43.274,31.738,39.198,-48.887
-0.79,0.837,0.258,153.625,-28.748,35.95,46.347,-42.048
-0.848,-0.199,0.139,132.996,-29.358,38.147,27.138,-59.551
-0.966,0.167,-0.028,-149.963,-57.129,6.165,20.901,-65.965
-1.023,0.917,-0.074,36.072,-47.668,9.216,25.31,-64.294
-1.066,-0.111,-0.177,180.298,-24.597,24.902,11.188,-78.629
-0.971,-0.167,0.025,-62.317,-30.334,8.118,11.28,-78.167
-0.989,0.804,-0.206,-119.934,-45.044,-12.573,19.503,-69.607
-1.006,0.239,-0.106,134.277,-26.428,25.208,10.671,-77.494
-1.07,0.264,0.066,-172.119,-33.142,2.991,15.746,-73.953
-0.946,0.181,-0.09,171.509,-21.179,17.639,20.28,-69.185
-0.985,-0.372,-0.174,16.235,-21.667,18.555,4.431,-83.8
-0.892,-0.018,-0.278,-109.07,-35.034,5.066,0.797,-82.984
-0.858,-0.03,-0.372,162.476,-8.667,30.579,-3.608,-75.609
-1.007,-0.569,-0.121,-100.22,-5.066,33.081,-14.377,-69.924
-0.836,0.267,-0.375,-28.625,-11.108,-19.958,-5.298,-71.56
-1.061,0.191,-0.453,145.935,5.432,9.583,-2.015,-70.545
-1.04,-0.44,-0.112,-82.947,-1.953,15.198,-7.67,-73.135
-0.975,0.919,-0.507,81.421,6.653,-10.986,12.682,-66.194
-0.974,-0.732,-0.15,-65.613,12.634,31.128,-0.83,-73.183
-1,0.786,-0.231,117.126,44.922,5.493,7.388,-74.137
-0.906,-0.438,-0.19,-127.319,13.489,9.521,7.616,-72.654
-1.015,0.192,-0.18,66.162,37.476,-13.794,-2.765,-78.737
-0.946,-0.233,-0.091,-185.486,8.85,-24.841,4.478,-78.909
-0.919,-0.016,0.029,46.936,18.372,-23.499,-7.39,-80.155
-0.904,-0.298,-0.111,-24.109,16.785,-23.071,-5.325,-82.462
-1.028,0.544,-0.025,3.113,34.485,-44.678,-0.037,-87.002
-1.075,-0.422,-0.014,2.014,33.997,-18.677,-2.792,-86.686
-0.93,0.737,0.023,-223.267,9.399,-67.139,8.109,-81.683
-0.961,0.539,0.131,13.794,22.644,-51.025,19.285,-70.647
-0.75,-0.221,-0.244,-118.774,13.062,-63.721,9.658,-80.213
-0.713,0.755,0.136,58.472,42.114,-59.021,28.342,-61.647
-0.608,-0.519,-0.283,-183.716,22.705,-72.632,10.31,-78.599
-0.715,1.702,-0.091,-58.533,15.32,-116.821,31.253,-57.392
-0.622,0.592,-0.245,74.219,32.41,-93.018,43.117,-45.906
-0.242,1.132,-0.371,-271.301,21.545,-124.634,50.448,-35.459
-0.251,0.951,-0.103,101.99,46.814,-103.333,65.438,-22.341
0.023,0.191,-0.519,-23.01,60.181,-90.332,60.074,-19.272
0.039,1.744,-0.101,-81.909,34.363,-99.304,73.698,-5.909
0.181,1.236,-0.079,206.604,20.691,-64.514,78.993,-0.11
0.355,1.647,0.152,-74.829,1.465,-52.246,80.451,7.029
0.351,1.101,0.033,118.042,7.446,-30.762,80.818,9.182
0.269,0.942,0.089,41.992,-1.404,3.296,76.609,13.2
0.299,0.828,0.079,-3.662,-2.441,-5.432,73.684,15.705
0.309,0.905,0.039,5.92,-7.568,-1.892,71.662,17.983
0.31,0.978,0.067,-0.732,5.127,4.944,71.558,17.95
0.28,0.891,0.087,7.141,7.324,4.761,71.164,18.349
0.283,0.955,0.128,-3.723,7.385,2.869,71.818,17.523
0.28,0.934,0.132,5.249,7.812,2.197,71.941,16.959
0.304,0.886,0.126,-8.789,-3.296,-1.831,71.288,17.251
0.327,0.957,0.113,21.24,-6.836,-4.272,70.875,17.592
0.289,0.903,0.086,-2.502,-8.545,-1.892,70.763,17.934
0.3,0.916,0.085,-16.479,-7.324,-1.526,70.641,18.314
0.277,0.97,0.027,-18.921,-1.892,-1.465,71.785,17.606
0.257,0.958,0.022,-23.499,-3.174,-1.038,73.01,16.666
0.278,0.929,-0.007,-5.005,-3.113,0.732,73.467,16.424
0.268,0.962,-0.002,-1.709,-0.549,0.732,74.186,15.803
aX,aY,aZ,gX,gY,gZ,Roll,Pitch
0.315,1.234,0.107,-18.066,-0.122,6.104,74.593,15.317
0.174,0.944,-0.131,-7.996,2.991,13.367,75.709,14.284
0.26,1.093,-0.126,-17.273,0.732,11.169,76.329,13.519
0.256,1.218,-0.05,-19.897,-3.418,33.936,77.124,12.625
0.185,1.401,-0.019,113.159,-8.972,49.805,78.657,10.624
0.099,0.727,0.035,120.056,-14.893,60.425,79.589,10.21
-0.029,0.964,0.245,-157.166,-34.607,59.265,82.689,6.747
-0.097,1.721,0.033,95.642,-31.677,54.993,86.021,1.87
-0.283,0.301,-0.018,155.09,-32.227,65.247,83.405,-4.765
-0.499,2.156,-0.016,31.616,-27.222,35.95,79.632,-10.006
-0.464,0.266,0.205,122.681,-31.86,39.795,72.99,-16.809
-0.659,2.31,-0.011,16.724,-44.922,10.986,69.188,-20.735
-0.539,0.234,0.111,212.219,-49.622,43.457,66.289,-23.489
-0.558,0.902,0.356,-130.554,-52.246,29.419,58.032,-30.496
-0.591,0.626,0.251,225.342,-45.105,38.086,58.954,-29.595
-0.771,-0.013,0.478,48.706,-45.837,40.771,32.613,-49.249
-0.738,0.167,0.104,-241.638,-66.528,8.789,30.014,-52.23
-0.854,0.739,0.034,171.143,-27.344,28.809,26.255,-59.375
-0.958,-1.135,0.11,208.557,-10.62,42.114,-4.059,-77.03
-1.023,1.209,-0.073,-20.752,-45.532,-18.616,15.327,-74.425
-1.001,0.184,0.115,184.57,-44.617,19.531,14.56,-75.183
-1.05,0.237,0.168,-160.461,-59.937,-5.737,6.983,-81.683
-0.81,0.105,-0.045,171.509,-56.519,3.845,24.051,-65.835
-1.008,-0.594,-0.095,-59.143,-46.936,24.658,-1.008,-87.663
-0.869,0.548,-0.098,131.287,-22.278,9.827,4.527,-85.345
-0.951,-0.815,-0.17,-91.125,-24.048,12.329,-11.677,-76.703
-0.924,0.771,-0.386,-96.008,-38.818,-29.419,-1.356,-78.628
-0.946,0.054,-0.203,107.788,-20.63,9.766,8.375,-74.506
-1.037,-0.417,-0.295,-59.57,-15.686,27.1,-5.821,-73.664
-1.062,0.716,-0.537,-163.757,-34.973,-26.184,14.928,-65.461
-1.038,0.283,-0.453,163.025,1.892,23.621,8.333,-68.375
-0.998,-0.346,-0.142,-182.434,-5.798,19.348,3.087,-70.723
-0.775,0.147,-0.308,153.381,13.55,2.441,10.958,-66.967
-1.048,-1.084,-0.309,31.738,19.226,47.791,-13.884,-67.848
-0.871,0.209,-0.454,-165.71,-17.029,-16.785,-15.456,-66.303
-0.89,-0.08,-0.36,169.861,9.949,7.568,-11.832,-65.361
-1.004,-0.463,-0.135,-29.602,20.203,21.667,-19.451,-63.56
-0.824,-0.302,-0.334,-214.783,-0.732,-24.597,-9.474,-68.245
-0.701,0.405,0.208,145.996,38.208,-9.583,-7.211,-77.444
-0.817,-1.132,-0.194,-98.694,41.077,24.109,-23.829,-65.011
-0.925,0.585,-0.178,-12.878,41.382,-28.198,-7.633,-78.468
-0.996,-0.884,-0.199,-47.546,25.085,-24.536,-16.515,-72.445
-1.015,1.085,-0.278,-83.496,19.348,-74.402,-5.124,-76.27
-0.964,0.441,0.053,82.764,30.029,-38.757,17.279,-70.678
-0.681,0.267,-0.179,-343.018,-2.869,-77.026,13.786,-73.374
-0.88,0.667,0.036,176.941,22.522,-73.73,34.651,-54.905
-0.564,0.369,-0.156,-241.333,16.785,-86.182,29.359,-60.32
-0.604,0.824,-0.194,50.903,33.447,-82.214,37.483,-51.342
-0.388,0.602,-0.281,-171.875,14.343,-91.309,44.464,-43.892
-0.406,1.004,-0.013,53.101,42.114,-94.116,53.574,-34.347
-0.209,0.135,-0.312,-35.156,42.114,-78.735,55.017,-30.881
-0.119,1.916,-0.325,-46.814,32.166,-107.849,68.262,-16.564
-0.145,1.152,-0.188,219.543,32.532,-92.102,73.902,-11.578
0.137,1.106,-0.134,-246.338,5.981,-61.584,76.737,-4.341
0.175,1.369,-0.185,90.82,25.208,-56.458,81.451,0.497
0.265,0.642,-0.222,5.554,2.014,-29.358,78.766,5.709
0.228,0.993,-0.081,19.592,0,-24.475,76.104,10.96
0.324,1.179,0.009,44.8,13.55,-14.343,75.253,13.252
0.242,0.839,-0.003,22.949,9.216,-2.197,73.247,16.113
0.32,0.873,0.076,-10.254,-2.258,0.366,74.004,15.996
0.315,0.876,0.012,8.911,-3.113,0.305,72.274,17.671
0.276,0.846,-0.052,0.671,9.155,7.812,71.438,18.554
0.259,0.9,-0.011,11.292,3.845,2.38,71.496,18.5
0.237,0.98,0.03,10.559,7.568,3.052,73.209,16.788
0.255,0.974,0.042,6.104,7.812,0.977,74.493,15.507
0.481,0.932,-0.001,-23.926,8.972,-4.211,71.958,18.02
0.318,0.989,0.012,9.277,-4.944,-7.996,71.536,18.425
0.263,0.951,-0.068,-4.333,-7.141,-6.531,71.091,18.908
0.248,0.944,-0.072,-9.888,-4.7,1.77,70.962,18.942
0.238,0.984,-0.016,-27.527,-2.38,4.456,74.446,15.411
0.25,0.955,-0.045,0.854,2.625,-1.282,75.132,14.571
0.235,0.949,-0.078,-14.221,3.479,0.671,75.486,14.179
0.277,0.909,-0.094,-2.014,-0.183,0.244,74.879,14.719
aX,aY,aZ,gX,gY,gZ,Roll,Pitch
0.275,1.01,-0.017,8.057,9.338,6.409,74.474,15.137
0.185,0.684,-0.289,-23.193,0.183,14.099,73.053,15.16
0.25,0.989,-0.115,-13.855,-3.296,9.155,72.782,15.212
0.428,1.259,-0.126,-30.823,2.319,15.32,72.237,15.959
0.307,1.453,-0.024,88.867,-13.062,45.654,73.541,14.836
0.173,0.945,-0.02,93.506,-27.527,65.552,75.586,13.986
0.05,1.129,0.168,-143.616,-30.09,58.289,78.664,11.336
-0.05,1.399,-0.071,77.881,-42.542,59.937,84.392,5.574
-0.21,0.406,-0.016,94.421,-46.387,76.904,88.943,-0.534
-0.399,1.72,0.029,49.438,-34.973,59.082,82.435,-7.441
-0.468,0.314,0.005,189.88,-41.138,59.021,73.627,-16.355
-0.58,1.602,-0.025,-59.082,-43.213,32.837,67.717,-22.283
-0.525,0.331,0.141,206.848,-46.082,45.044,63.509,-26.408
-0.736,2.033,0.149,119.324,-26.611,22.949,61.495,-28.293
-0.721,-0.665,0.272,-48.584,-41.26,41.931,51.598,-37.441
-0.986,2.088,0.079,94.91,-27.1,11.292,51.279,-37.692
-0.824,-0.066,0.227,125.854,-47.607,40.833,45.369,-43.295
-1.094,1.464,-0.17,-20.935,-31.311,-9.583,37.71,-51.826
-1.017,-0.107,0.068,129.517,-45.41,42.297,40.705,-49.204
-0.816,0.583,0.11,-216.125,-53.833,-5.371,26.491,-63.283
-0.827,0.087,-0.007,257.202,-41.016,18.738,28.349,-61.651
-0.93,-0.972,0.002,-56.702,-38.818,29.968,-6.511,-82.928
-1.147,1.432,-0.167,99.487,-21.973,-10.376,16.876,-73.099
-1.119,-0.127,-0.138,42.847,-28.809,16.846,5.929,-82.616
-1.065,0.427,-0.219,-173.95,-36.316,-16.296,10.037,-77.793
-0.949,0.14,-0.139,62.5,-24.414,-0.671,23.378,-65.104
-0.991,0.081,-0.099,-74.585,-13.916,6.165,7.131,-79.136
-0.869,0.024,-0.217,105.652,-8.301,12.756,9.702,-76.197
-0.944,-0.317,-0.29,-53.04,-10.925,25.146,-1.084,-78.727
-0.937,0.47,-0.255,48.34,1.465,-1.831,3.846,-76.502
-1.017,-0.422,-0.311,6.348,-2.991,18.188,-3.572,-73.724
-0.971,0.548,-0.464,-166.199,-28.442,-24.78,3.906,-70.78
-0.948,-0.316,-0.354,96.436,-4.456,12.512,3.894,-69.973
-0.994,-0.008,-0.246,-54.932,-1.587,-0.732,-2.732,-70.533
-0.819,0.154,-0.252,49.5,5.188,-8.057,5.446,-69.85
-0.801,-0.127,-0.236,-185.547,17.822,2.502,-4.57,-72.428
-0.848,0.12,-0.27,100.403,37.17,5.615,2.201,-73.673
-0.952,-0.354,-0.127,16.174,29.297,14.832,-3.362,-75.111
-0.981,-0.007,-0.109,-165.527,26.245,-24.048,-5.755,-76.985
-1.151,0.537,-0.123,-55.054,32.837,-38.452,4.245,-79.987
-1.041,0.18,-0.018,61.646,22.705,-25.208,4.91,-82.847
-1.006,-0.251,-0.195,-25.33,23.56,-21.301,6.234,-81.308
-0.972,0.389,0.001,-157.043,17.456,-49.255,11.548,-77.586
-0.94,0.465,0.154,44.006,21.606,-49.622,11.184,-78.785
-0.743,-0.243,-0.274,-277.222,-0.061,-49.561,5.592,-82.578
-0.954,0.757,-0.018,46.387,8.423,-60.486,20.738,-69.155
-0.69,0.956,-0.23,-198.12,11.353,-101.379,30.027,-59.379
-0.527,0.703,0.197,93.811,45.898,-103.76,36.536,-52.992
-0.402,0.94,-0.238,-180.969,35.217,-115.295,52.344,-37.381
-0.346,0.805,-0.01,120.789,56.458,-90.576,59.754,-29.91
0.014,1.073,-0.388,-338.135,11.353,-92.59,69.234,-19.564
-0.061,0.884,-0.08,87.158,42.175,-76.538,73.887,-11.902
0.254,0.683,-0.332,-107.91,16.235,-67.81,76.586,-2.246
0.21,1.503,-0.244,27.893,13,-58.167,74.82,5.577
0.249,0.047,-0.664,109.802,7.935,-20.935,64.723,10.903
0.177,1.529,0.063,22.705,5.554,-20.508,68.582,12.718
0.313,1.173,-0.212,125,19.165,-30.273,71.524,12.219
0.284,0.807,-0.058,57.068,0.366,-1.892,69.306,15.606
0.297,0.892,-0.036,-3.418,2.319,-3.174,75.998,13.645
0.33,1.099,0.083,-12.512,-11.78,-1.465,72.618,17.091
0.26,0.986,-0.055,-0.916,3.967,6.653,72.793,17.179
0.292,0.915,-0.022,10.376,6.287,3.784,73.146,16.849
0.295,0.965,0.036,0.183,7.874,1.709,73.447,16.541
0.294,0.945,0.039,18.982,8.484,-0.122,73.311,16.689
0.269,1.153,0.073,-41.382,-2.808,-5.493,73.768,16.133
0.272,0.926,0.057,9.155,-4.456,0.061,73.93,15.803
0.164,0.926,-0.063,-3.906,-11.169,-6.714,75.726,14.192
0.271,0.93,-0.019,-24.048,-3.296,-0.061,76.059,13.923
0.277,0.93,-0.07,-28.381,-9.766,1.587,75.094,14.835
0.3,0.962,-0.053,-13.184,-7.874,2.075,74.601,15.082
aX,aY,aZ,gX,gY,gZ,Roll,Pitch
0.287,1.024,0.19,-30.212,-9.644,6.287,73.551,16.434
0.24,0.939,-0.073,-50.049,-4.822,5.249,74.025,15.974
0.26,1.197,-0.168,-41.138,1.465,15.015,75.16,14.77
0.287,1.485,-0.011,136.597,-13.367,54.932,76.955,13.022
0.162,0.917,-0.006,144.897,-26.489,74.707,77.767,11.799
-0.076,1.064,0.136,-209.717,-27.954,61.462,82.238,7.74
-0.152,1.103,0.081,145.935,-46.326,58.777,86.255,2.777
-0.206,0.3,0.031,-98.45,-38.208,55.847,83.864,-4.57
-0.271,1.332,0.042,196.716,-45.532,43.762,78.655,-10.477
-0.345,-0.363,0.064,46.387,-33.264,55.725,67.182,-22.233
-0.289,1.205,0.447,162.048,-19.043,44.25,63.096,-23.611
-0.512,-0.242,0.381,-37.476,-47.119,37.903,48.715,-33.434
-0.729,1.114,0.231,199.768,-52.124,47.913,38.128,-42.456
-0.783,-0.506,0.309,81.909,-45.41,39.978,30.325,-47.995
-0.896,1.452,0.182,51.514,-45.288,20.325,30.227,-53.929
-0.881,-0.132,0.162,159.058,-41.016,33.447,29.506,-57.189
-0.89,0.35,-0.169,-174.316,-53.955,0.305,18.472,-69.925
-0.886,0.236,0.322,146.301,-45.105,17.09,27.984,-60.993
-0.957,-0.069,0.248,-132.812,-53.65,-2.014,6.019,-79.304
-0.905,0.458,0.04,161.316,-42.297,7.263,14.911,-73.595
-0.989,-0.277,-0.019,-120.422,-32.959,-12.268,5.26,-79.602
-0.947,0.555,-0.176,116.211,-26.001,-13.245,9.959,-79.943
-0.933,-0.324,-0.118,-33.081,-14.099,9.094,6.211,-82.543
-1.085,1.159,-0.349,-8.789,-12.207,-28.992,15.52,-71.859
-1.085,0.02,-0.231,99.121,-12.634,23.315,18.799,-67.718
-0.994,0.093,-0.124,-166.504,-18.494,10.01,12.783,-72.963
-0.952,0.316,-0.172,47.485,-8.911,-6.287,20.67,-66.219
-0.971,-0.64,-0.298,-34.79,-2.136,25.818,-2.959,-77.977
-0.863,0.78,-0.26,50.659,-3.784,-13.794,8.053,-74.973
-1.164,-0.143,-0.289,68.909,-0.061,24.292,4.375,-74.9
-0.906,0.568,-0.294,-40.527,0.977,-22.156,7.901,-71.94
-1.042,-0.013,-0.372,106.384,2.991,20.996,16,-66.824
-0.836,-0.296,-0.301,-216.187,8.118,22.034,1.599,-72.276
-0.929,-0.133,-0.135,83.496,26.245,-12.512,1.865,-73.368
-0.902,-0.806,-0.349,-34.363,37.903,8.667,-17.806,-65.354
-0.978,0.496,-0.41,-103.699,42.908,-51.392,-10.897,-68.921
-1.088,0.332,-0.065,137.878,40.466,-28.381,-1.573,-76.095
-0.97,0.284,-0.033,-301.392,26.794,-60.791,4.354,-76.984
-0.894,0.598,0.348,-24.353,61.279,-70.435,23.501,-66.389
-0.562,-0.692,-0.033,-160.278,33.875,-44.006,8.431,-80.864
-0.658,1.512,-0.156,-64.941,19.836,-117.859,28.859,-61.055
-0.639,0.556,-0.097,154.602,30.029,-68.787,35.628,-54.352
-0.433,1.467,-0.148,-152.344,26.794,-93.445,50.636,-38.552
-0.233,1.391,0.089,152.405,52.917,-103.21,68.032,-21.684
-0.069,0.974,-0.187,-266.907,52.368,-72.021,72.122,-17.329
-0.029,1.507,-0.087,80.078,40.833,-72.876,81.132,-8.125
0.186,0.701,-0.326,-273.254,9.949,-32.959,83.376,-1.8
0.216,0.875,-0.384,170.288,13.184,-27.71,75.748,4.172
0.187,0.273,-0.363,32.104,5.615,-14.16,69.007,8.962
0.206,1.136,-0.031,78.979,4.456,-8.484,65.501,14.027
0.267,0.973,-0.071,83.679,16.724,-35.156,69.48,14.584
0.222,0.974,0.003,-10.559,-0.977,-1.343,73.484,14.589
0.195,1.017,-0.006,26.978,-7.996,-4.211,77.672,12.241
0.259,0.964,-0.039,-9.338,-2.075,6.042,76.418,13.483
0.271,0.915,-0.038,25.085,9.888,3.235,76.216,13.734
0.267,0.931,0.062,3.906,7.324,1.099,75.468,14.528
0.233,0.775,0.113,25.757,8.423,0.305,73.9,16.026
0.25,0.987,0.051,11.292,0.793,-0.854,73.95,15.778
0.273,0.866,0.032,14.893,-3.113,3.479,73.496,15.991
0.27,0.87,0.021,-23.254,-4.15,2.686,73.325,16.303
0.247,0.97,0.02,-26.611,1.038,5.859,74.175,15.71
0.251,0.998,-0.024,-12.512,-7.019,-2.747,74.282,15.7
0.263,0.965,-0.023,-11.23,-4.272,-0.488,74.819,15.181
0.26,0.957,-0.031,-2.625,-4.517,0.061,75.257,14.719
aX,aY,aZ,gX,gY,gZ,Roll,Pitch
0.416,0.832,0.257,-36.194,-7.629,6.958,72.204,17.592
0.18,1.067,-0.123,-50.903,2.014,18.372,73.632,16.325
0.314,1.269,0.002,-3.784,2.991,39.795,74.099,15.836
0.238,1.206,0.005,170.898,-22.949,68.176,75.18,14.707
-0.024,0.675,0.284,112.61,-36.194,78.613,80.207,9.524
-0.194,0.899,0.302,-129.517,-46.875,54.199,80.449,4.667
-0.225,0.799,0.258,175.964,-54.382,43.152,76.266,-3.193
-0.325,0.673,0.199,-154.114,-53.772,43.03,66.942,-13.426
-0.373,0.577,0.201,241.272,-47.607,29.114,63.447,-19.813
-0.546,0.739,0.318,-209.229,-57.129,8.545,57.697,-26.428
-0.5,0.652,0.351,219.482,-49.011,18.311,52.261,-31.454
-0.677,1.079,0.284,-171.143,-64.148,6.042,51.885,-32.737
-0.637,0.58,0.361,214.661,-53.284,20.813,48.497,-35.383
-0.856,0.459,0.391,-131.775,-53.162,11.658,42.656,-40.746
-0.78,0.354,0.401,179.077,-49.194,23.193,36.998,-45.898
-0.887,-0.132,0.328,-162.415,-65.125,11.841,19.859,-58.397
-0.744,-0.014,0.121,255.981,-43.03,15.564,10.798,-66.681
-0.937,-0.432,0.087,-117.126,-55.298,3.113,-3.695,-73.947
-0.891,0.656,-0.078,115.601,-18.799,-26.367,1.281,-82.343
-0.977,0.272,0.053,9.888,-24.353,-8.301,7.725,-81.734
-0.745,-0.17,-0.15,-270.325,-57.556,-29.968,5.24,-84.572
-0.662,0.091,-0.016,195.435,-11.902,-9.644,14.504,-75.123
-0.999,-0.208,-0.15,-42.725,-10.193,30.518,-0.256,-85.532
-0.848,0.121,-0.115,114.258,5.188,-11.23,-2.885,-81.922
-0.83,-0.254,-0.239,-112,-2.136,2.991,-4.219,-80.197
-0.764,0.59,-0.206,114.685,12.451,-8.85,4.066,-77.672
-1.022,-0.114,-0.159,3.479,4.7,28.992,5.543,-77.06
-0.74,0.519,-0.258,126.526,5.371,-7.507,12.064,-71.297
-1.062,-0.15,-0.124,-26.917,8.606,43.762,12.974,-72.557
-0.905,0.755,-0.35,32.41,13.245,-8.545,14.743,-70.151
-1.008,0.158,-0.159,49.316,13.306,40.344,18.534,-67.215
-0.784,0.255,-0.187,-191.345,27.283,13.184,14.814,-70.831
-1.013,0.687,-0.04,95.581,44.434,-9.521,26.128,-61.721
-0.932,-0.499,0.088,10.803,35.278,33.264,9.114,-79.815
-0.83,0.314,-0.017,-287.72,8.24,-18.738,12,-77.742
-0.941,0.504,0.255,42.236,36.072,-33.325,15.108,-74.28
-0.778,0.261,0.055,-298.218,10.437,-54.077,9.397,-78.73
-0.895,0.721,0.206,62.988,42.847,-55.847,27.349,-61.525
-0.638,0.53,0.078,-263.123,13.733,-72.998,31.376,-57.123
-0.738,0.671,0.089,74.219,44.556,-67.017,35.333,-53.886
-0.414,0.919,-0.196,-254.578,7.263,-76.477,46.55,-43.332
-0.44,0.957,0.099,59.204,38.391,-62.378,54.054,-35.926
-0.249,0.844,-0.335,-257.202,16.663,-73.181,61.098,-28.368
-0.291,0.983,-0.367,77.759,30.64,-57.556,66.553,-20.193
-0.012,-0.091,-0.21,122.559,31.799,-31.128,64.557,-19.407
-0.021,1.331,-0.06,-19.348,15.625,-51.697,69.827,-10.085
-0.01,0.335,-0.217,210.876,-12.451,-42.48,70.287,-7.06
0.127,2.121,0.035,-158.813,2.136,-61.768,82.907,1.29
0.206,0.993,0.077,-32.471,20.142,-51.208,85.881,3.608
0.216,0.783,-0.062,44.006,8.789,-31.128,82.412,7.243
0.217,1.033,-0.005,43.335,1.16,1.221,81.159,8.826
0.237,1.123,0.048,6.714,-0.854,-6.775,77.421,12.551
0.256,0.931,0.037,3.784,7.263,10.62,76.543,13.455
0.245,0.873,-0.006,39.246,13.794,7.629,76.4,13.558
0.29,0.886,0.109,16.907,10.071,4.395,74.673,15.071
0.387,0.4,0.228,-0.854,7.996,4.395,68.231,20.732
0.295,0.88,0.112,25.085,-1.221,-7.935,66.922,21.609
0.286,0.841,0.04,6.226,-7.385,-3.906,65.827,22.433
0.279,1.006,0.118,3.052,-4.883,0.488,66.753,21.496
0.26,0.935,0.041,-23.193,-1.038,4.089,72.381,16.953
0.266,0.949,0.043,-16.357,0.305,3.784,73.323,16.269
0.296,0.922,0.054,4.15,2.563,-2.258,73.477,16.08
0.239,0.942,-0.031,2.197,-1.099,-1.587,74.11,15.807
aX,aY,aZ,gX,gY,gZ,Roll,Pitch
0.374,1.016,0.159,-8.484,5.249,13.55,72.649,17.031
0.25,0.921,0.027,-20.752,2.136,5.554,72.778,16.939
0.317,1.217,-0.097,-23.987,-1.038,20.63,73.9,16.08
0.255,1.464,0.061,49.011,-15.442,47.241,75.365,14.519
0.005,0.913,0.001,99.182,-34.302,71.838,79.604,10.396
-0.057,0.878,0.171,-149.048,-26.428,63.843,83.135,6.641
-0.17,1.673,0,113.159,-41.138,46.143,87.266,0.393
-0.295,0.03,0.078,68.359,-36.743,56.641,80.67,-8.39
-0.495,1.923,0.129,95.337,-43.152,27.771,76.45,-12.689
-0.438,0.159,-0.006,221.313,-49.133,35.767,69.531,-20.251
-0.637,1.985,0.058,19.409,-51.575,13.977,65.312,-24.437
-0.577,-0.301,0.25,186.279,-62.073,44.373,59.83,-29.521
-0.89,2.065,-0.085,-23.193,-56.519,0.732,56.879,-32.985
-0.746,-0.317,0.187,61.401,-61.462,46.265,50.014,-39.499
-0.909,1.219,0.088,124.939,-21.667,43.457,40.216,-49.127
-0.874,-0.142,0.292,-42.114,-33.691,16.968,39.288,-50.032
-0.697,0.579,0.272,285.706,-43.03,-1.709,21.888,-63.908
-0.94,0.186,0.088,-159.729,-46.936,-8.118,27.762,-59.874
-0.871,0.171,0.224,94.543,-41.26,0.122,12.814,-70.732
-0.868,0.052,-0.158,-230.957,-76.416,-1.404,16.189,-72.33
-0.875,1.034,-0.582,187.744,-17.822,4.883,21.95,-67.052
-0.985,0.151,-0.243,126.16,-7.141,28.076,20.953,-66.033
-0.983,-0.118,-0.052,67.017,-12.39,-1.587,16.207,-67.663
-0.82,0.567,-0.42,-83.618,-51.392,-66.345,22.819,-60.33
-0.86,0.595,-0.381,124.329,-5.92,16.846,17.425,-66.028
-0.833,-0.016,-0.113,-62.439,-9.644,0.61,15.82,-68.032
-0.716,0.581,-0.366,-124.084,-59.875,-71.289,26.419,-56.363
-0.748,0.883,-0.393,88.989,-3.479,-11.169,31.011,-52.808
-0.798,0.055,-0.371,15.93,15.442,27.649,24.234,-57.8
-0.824,0.607,-0.355,-38.818,-7.629,-4.395,31.811,-49.97
-0.868,0.766,-0.491,94.666,31.86,36.377,32.57,-48.987
-0.885,0.264,-0.171,-113.22,11.658,8.179,24.861,-57.05
-0.745,0.751,-0.343,-9.46,33.264,12.939,33.632,-50.407
-0.815,0.009,-0.359,127.93,41.626,85.083,26.539,-55.82
-0.9,0.121,-0.047,-189.392,28.32,31.982,18.252,-66.306
-0.95,0.552,-0.224,-93.14,28.259,-35.461,21.991,-63.083
-0.979,0.82,-0.257,99.243,21.423,-0.977,21.81,-64.435
-1.025,-0.587,-0.184,-140.198,42.297,23.926,13,-73.375
-0.923,0.429,0.116,28.259,61.401,-54.688,17.218,-71.044
-0.663,-0.885,-0.133,-182.312,50.781,-16.785,-3.539,-81.922
-0.735,0.72,-0.184,-94.91,24.597,-72.632,-5.482,-81.455
-0.81,0.349,0.093,91.003,38.086,-40.039,11.072,-78.756
-0.578,1.103,-0.136,-305.359,7.69,-86.365,24.604,-64.388
-0.545,0.675,0.123,50.415,31.128,-98.572,46.831,-43.129
-0.301,0.828,-0.259,-215.637,26.672,-101.013,52.808,-37.055
-0.186,1.038,0.274,108.032,63.721,-104.797,66.152,-23.848
-0.006,1.354,-0.166,-177.612,26.489,-82.275,75.062,-14.932
0.15,1.208,0.147,65.125,35.4,-71.96,85.566,-4.434
0.221,1.013,-0.072,64.514,13,-57.556,86.821,2.217
0.241,0.969,0.031,61.523,16.235,-36.133,82.371,7.592
0.238,0.771,0.051,58.716,21.79,-26.367,77.687,12.103
0.332,0.93,0.186,11.475,6.836,1.221,74.088,15.625
0.278,0.951,0.132,-8.789,-4.761,-3.662,72.236,16.637
0.287,0.919,0.049,-2.38,0.916,7.019,71.293,17.51
0.282,0.907,0.04,1.038,8.24,6.104,71.4,17.545
0.304,0.919,0.12,-0.61,5.92,5.859,71.994,17.237
0.272,0.961,0.085,4.639,7.08,2.625,72.291,17.133
0.314,0.831,0.095,2.38,1.099,-1.16,71.335,17.901
0.273,0.915,0.044,20.569,-6.775,-9.46,71.493,17.721
0.268,0.91,0.079,-0.427,-2.991,-2.197,72.107,17.258
0.261,0.916,0.044,1.16,4.822,-2.686,72.204,17.31
0.266,0.914,0.018,-48.035,-4.883,4.822,73.483,16.268
0.271,0.969,-0.018,-40.833,-6.897,3.174,73.864,16.027
0.274,0.96,-0.072,-6.226,-2.319,1.831,74.071,15.923
aX,aY,aZ,gX,gY,gZ,Roll,Pitch
0.247,1.042,-0.021,21.484,11.23,10.315,74.707,15.232
0.199,0.927,-0.031,-13.916,-11.047,14.16,75.589,14.262
0.243,1.069,-0.109,2.625,-3.113,25.452,76.064,13.538
0.284,1.429,0.046,77.454,-11.292,42.48,77.62,12.294
0.103,1.122,0.095,86.06,-28.992,67.078,79.658,10.342
0.047,1.044,0.187,-115.845,-26.428,74.707,81.319,8.254
-0.078,1.466,0.094,76.66,-44.617,66.223,83.771,4.003
-0.291,0.235,-0.107,117.371,-47.913,76.965,84.865,-3.24
-0.366,1.113,0.214,-43.762,-41.504,34.363,78.418,-10.071
-0.484,0.112,-0.012,142.822,-44.189,48.279,67.138,-22.577
-0.633,1.287,0.147,-71.167,-36.194,16.968,56.903,-32.755
-0.615,0.692,0.25,194.946,-52.307,25.818,55.736,-32.776
-0.727,0.812,0.258,-93.567,-51.819,7.996,48.786,-39.602
-0.732,0.63,0.296,160.156,-53.284,22.461,50.003,-37.333
-0.832,0.448,0.322,-247.192,-51.575,7.446,39.639,-45.892
-0.842,0.44,0.286,128.296,-34.363,12.39,34.885,-50.273
-0.85,-0.08,0.245,-39.49,-31.921,15.076,22.611,-60.513
-0.796,0.545,0.189,150.635,-40.161,2.502,21.249,-62.767
-0.909,-0.13,0.109,27.71,-27.771,-1.709,12.49,-71.527
-0.547,-0.219,-0.021,-290.71,-56.335,-12.085,2.105,-80.207
-0.795,0.509,-0.192,195.007,-9.705,12.878,13.008,-76.895
-1.043,-0.041,-0.143,40.039,-26.672,39.124,2.046,-85.246
-1.016,0.711,-0.06,37.659,-7.568,7.629,15.642,-72.909
-1.006,0.228,-0.2,110.535,-27.222,20.874,19.806,-68.41
-0.83,-0.604,-0.193,-230.042,-25.208,24.353,4.262,-80.308
-0.758,0.393,-0.377,101.99,-0.854,9.705,11.114,-72.994
-1.066,0.102,-0.377,99.731,-4.028,35.95,1.768,-72.504
-0.877,0.229,-0.074,14.16,-2.136,-16.052,1.855,-73.763
-0.89,0.203,-0.19,111.877,6.287,7.385,13.937,-69.029
-0.798,0.079,-0.155,-207.825,-2.991,2.563,9.352,-74.54
-0.85,0.018,-0.114,119.263,14.893,5.676,8.694,-77.609
-0.96,0.1,-0.179,-134.399,12.634,0.244,6.41,-77.866
-0.955,0.767,-0.09,206.97,45.227,-18.494,14.978,-72.789
-0.983,-0.417,-0.059,-109.375,23.01,17.456,7.063,-80.26
-0.822,0.113,-0.114,-270.508,17.822,-28.015,8.538,-79.118
-0.83,0.502,-0.03,105.652,40.71,-26.062,14.991,-74.318
-0.916,-0.034,-0.045,-52.307,29.602,-13.245,2.631,-85.224
-0.961,0.984,-0.005,-41.443,37.659,-57.739,23.881,-65.926
-1.018,0.467,0.209,74.585,25.818,-21.484,27.237,-62.696
-0.825,0.292,-0.047,-260.559,29.419,-59.875,24.66,-65.283
-0.793,0.7,0.231,32.043,25.391,-48.462,34.018,-55.496
-0.592,0.509,-0.136,-219.238,30.884,-60.425,31.279,-58.425
-0.632,0.745,0.101,43.274,44.922,-69.458,38.27,-51.631
-0.392,0.28,-0.233,-190.552,41.321,-75.439,42.83,-47.163
-0.369,0.616,-0.03,55.359,39.795,-62.805,46.975,-42.434
-0.173,0.756,-0.274,-137.512,41.504,-89.783,55.867,-32.721
-0.063,0.937,-0.033,82.947,31.677,-89.539,66.101,-20.589
0.211,0.656,-0.242,-15.93,35.828,-75.867,76.74,-7.409
0.255,1.178,-0.132,-86.792,22.705,-50.903,78.485,3.685
0.308,0.918,0.066,91.431,16.541,-44.312,77.927,10.88
0.438,1.088,0.06,15.076,1.526,-18.616,72.126,17.501
0.28,1.139,0.133,22.278,-6.531,-5.188,73.411,16.506
0.251,0.843,-0.038,16.357,7.202,10.803,72.004,17.724
0.317,0.879,0.068,24.109,11.475,5.493,71.712,18.011
0.276,0.909,0.193,11.23,7.751,3.723,72.646,16.521
0.278,0.928,0.206,3.418,3.418,2.014,71.353,17.377
0.247,1.005,0.143,-12.939,-6.47,-4.944,71.1,16.52
0.259,1.021,0.159,4.883,-2.441,-2.563,71.79,15.105
0.269,0.872,0.057,-9.399,1.953,3.723,72.652,15.228
0.348,0.954,0.132,10.132,2.869,-1.526,72.357,16.12
0.258,0.915,0.196,-23.254,-15.259,8.972,71.519,16.607
0.313,0.893,-0.034,-17.578,-5.005,-1.526,71.184,18.018
0.232,0.934,0.039,-32.104,-19.47,4.639,72.047,17.223
aX,aY,aZ,gX,gY,gZ,Roll,Pitch