aX,aY,aZ,gX,gY,gZ,Roll,Pitch
0.485,-0.018,-0.904,7.812,-7.812,0.366,-1.03,28.198
0.467,0.115,-0.834,14.16,19.531,0.549,2.8,28.67
0.495,-0.013,-0.82,5.005,-0.916,2.502,1.641,29.484
0.458,-0.039,-0.956,7.019,0.183,-9.705,0.647,28.466
0.458,0.216,-0.904,-39.734,11.963,17.578,4.019,28.055
0.499,0.177,-0.925,8.484,0.549,45.349,4.782,27.815
0.495,0.317,-0.984,5.31,19.531,74.341,9.018,26.513
0.381,0.255,-1.085,30.762,47.302,90.942,12.625,24.526
0.187,0.427,-1.201,45.471,57.8,104.126,14.714,19.716
-0.044,0.505,-1.014,72.815,75.989,118.347,18.849,12.646
-0.267,0.345,-0.777,73.608,74.097,102.173,20.561,3.377
-0.52,0.378,-0.382,70.801,74.402,80.322,25.724,-9.721
-0.804,0.229,-0.166,54.993,38.818,53.406,27.05,-30.679
-0.88,-0.044,-0.106,56.946,42.175,49.194,17.651,-55.556
-0.738,-0.053,0.32,40.283,44.25,27.954,9.765,-78.298
-0.937,-0.124,0.451,16.602,16.174,3.296,0.14,-81.548
-0.953,0.25,0.173,-7.385,-6.958,-0.183,0.452,-76.559
-0.982,0.086,0.265,-11.841,4.883,2.319,2.381,-71.343
-0.962,-0.031,0.255,-3.113,1.953,0.122,2.583,-73.182
-0.917,0.126,0.217,7.263,-2.747,1.648,6.255,-75.212
-0.969,0.187,0.298,-3.174,0.793,-3.967,5.283,-73.994
-0.89,0.042,0.175,3.662,-1.831,-1.465,4.796,-75.035
-0.966,-0.045,0.241,-8.423,0.61,1.465,4.597,-75.312
-0.903,-0.028,0.229,-1.16,-3.784,-3.052,2.334,-75.617
-0.875,-0.033,0.285,-60.669,-20.935,-10.193,-0.96,-75.61
-0.8,0.226,-0.008,-91.919,-43.091,-43.03,1.913,-77.947
-0.699,0.12,-0.354,-124.573,-62.378,-44.312,4.976,-84.359
-0.499,0.08,-0.692,-74.036,-70.496,-66.345,7.539,-73.266
-0.471,0.603,-0.764,-61.34,-72.205,-69.214,18.556,-49.765
-0.13,0.533,-0.975,-44.006,-74.524,-85.51,21.946,-30.224
0.103,0.328,-0.982,-17.639,-74.219,-83.13,23.48,-14.904
0.401,0.498,-1.043,-10.071,-61.401,-85.754,27.522,-1.312
0.539,0.315,-0.927,51.819,-38.757,-60.303,22.547,12.066
0.548,0.333,-0.835,15.259,-30.09,-31.128,19.738,21.378
0.585,0.275,-0.835,-26.978,8.118,7.629,18.726,27.94
0.519,0.266,-0.78,-1.221,-7.08,3.54,16.444,31.46
0.516,0.174,-0.843,-6.104,1.16,1.404,14.872,32.104
0.511,0.182,-0.801,-6.958,2.075,0.671,12.962,32.237
0.526,0.189,-0.907,-17.273,1.465,2.808,11.673,31.166
0.497,0.158,-0.882,1.038,2.197,-0.793,9.966,30.344
0.474,0.131,-0.827,-5.737,1.709,1.099,9.452,29.988
0.512,0.11,-0.841,-5.005,-5.188,0.244,8.367,29.809
aX,aY,aZ,gX,gY,gZ,Roll,Pitch
0.537,0.071,-0.87,2.747,-6.042,2.258,6.755,30.327
0.537,0.244,-0.861,47.241,25.146,-10.437,7.969,30.875
0.5,0.113,-0.811,8.789,-0.61,-2.441,7.721,31.333
0.528,0.078,-0.858,-4.761,1.77,-2.441,7.219,31.439
0.558,0.093,-0.822,-10.681,-0.366,7.568,7.582,32.024
0.591,0.28,-0.915,1.831,3.784,35.217,7.954,32.224
0.57,0.517,-1.005,-1.343,31.555,86.914,12.859,31.072
0.419,0.451,-1.155,58.716,52.185,106.873,16.797,27.415
0.212,0.492,-1.015,52.063,65.735,115.906,21.291,21.957
-0.053,0.618,-0.836,75.745,61.096,114.502,26.478,14.263
-0.326,0.409,-0.62,68.298,64.636,112.915,28.46,3.499
-0.671,0.439,-0.352,48.401,74.951,93.262,33.629,-13.71
-0.825,-0.104,-0.039,48.462,87.158,85.388,27.371,-39.256
-0.768,-0.253,0.307,21.606,36.377,39.063,10.364,-71.685
-0.989,-0.114,0.266,4.761,-3.54,-0.793,-0.567,-86.749
-0.953,0.018,0.235,-10.437,-7.629,-0.916,-7.14,-75.834
-0.955,-0.016,0.241,1.038,5.249,1.526,-5.474,-73.146
-0.972,-0.034,0.252,6.531,4.15,-0.793,-2.089,-75.449
-0.916,0.092,0.222,-2.197,-1.16,-1.77,0.878,-75.917
-0.939,0.102,0.213,-2.136,-2.441,-0.916,2.116,-76.047
-0.942,0.044,0.24,0.488,-0.183,-1.099,3.014,-75.848
-0.967,0.002,0.199,2.38,0.305,-0.854,3.558,-76.45
-0.974,0.018,0.228,-1.892,-2.808,0.305,2.438,-76.799
-0.894,-0.169,0.316,-3.296,-8.85,-7.263,-1.532,-75.331
-0.826,0.013,0.217,-67.749,-31.616,-20.691,-2.06,-75.161
-0.734,-0.089,-0.12,-86.67,-65.002,-41.626,-3.734,-78.773
-0.661,0.239,-0.411,-74.28,-82.947,-62.988,-0.126,-89.872
-0.549,0.559,-0.737,-76.05,-91.675,-86.914,13.695,-65.266
-0.25,0.61,-0.96,-61.035,-86.182,-87.341,22.881,-40.243
0.059,0.271,-1.058,-10.559,-80.566,-88.623,25.871,-21.329
0.309,0.458,-1.05,-29.358,-63.171,-89.539,26.366,-5.774
0.487,0.252,-0.916,32.104,-43.884,-79.285,21.549,8.035
0.536,0.379,-0.812,-6.531,-34.485,-46.997,18.438,18.87
0.55,0.226,-0.918,27.893,-0.427,-7.08,17.606,25.627
0.576,0.137,-0.798,-6.409,0.671,5.31,13.767,30.939
0.601,0.061,-0.825,-4.517,-2.014,1.892,11.224,33.281
0.526,0.102,-0.811,-14.771,5.31,5.432,7.406,33.594
0.545,0.057,-0.875,1.953,1.587,2.808,5.079,34.052
0.578,0.068,-0.849,1.892,-1.709,-0.854,4.058,33.722
0.573,0.058,-0.753,5.005,3.906,2.38,4.098,33.963
0.571,0.006,-0.774,-14.343,-0.244,2.258,2.734,34.856
0.592,0.058,-0.808,-5.493,5.554,0.854,2.766,35.962
0.571,-0.003,-0.854,4.761,0.305,-0.427,1.728,35.873
0.563,0.008,-0.827,-4.395,-2.93,0.732,0.99,35.147
0.568,0.008,-0.828,-3.967,-0.122,1.831,0.995,34.66
0.575,-0.001,-0.833,1.343,-2.625,0.854,0.154,34.28
0.573,0,-0.834,-0.549,-1.038,0.854,0.198,34.449
aX,aY,aZ,gX,gY,gZ,Roll,Pitch
0.562,0.039,-0.824,-0.549,-3.784,2.014,0.632,34.453
0.587,0.103,-0.856,40.161,18.25,-10.803,1.972,34.43
0.549,0.032,-0.826,7.141,-0.854,-2.502,2.456,34.171
0.549,0.028,-0.887,6.714,2.991,-3.052,2.84,33.464
0.634,0.365,-0.814,12.146,-1.648,39.856,7.344,34.107
0.582,0.461,-0.851,-25.574,16.541,83.923,12.222,33.534
0.59,0.513,-1.203,27.71,57.251,109.192,17.151,30.509
0.354,0.57,-1.121,61.768,83.618,124.939,22.831,26.028
-0.014,0.481,-0.961,69.58,83.618,127.869,24.697,18.176
-0.316,0.457,-0.526,74.707,73.975,108.398,27.638,8.096
-0.619,0.17,-0.365,43.64,60.059,88.928,28.968,-9.895
-0.856,0.157,-0.117,42.358,61.035,68.909,25.354,-37.629
-0.824,-0.076,0.151,42.908,65.857,55.542,14.452,-66.945
-0.866,-0.299,0.35,11.963,36.865,18.799,-0.846,-89.092
-0.943,-0.077,0.303,-3.662,-6.042,-4.639,-4.726,-77.908
-0.953,-0.018,0.278,-7.202,-2.197,-1.953,-7.148,-71.788
-0.968,-0.111,0.256,4.578,3.54,4.333,-7.348,-70.927
-0.984,0.003,0.325,7.019,1.709,-2.014,-2.899,-72.963
-0.961,0.096,0.277,-1.831,-1.77,-2.197,-0.444,-73.633
-0.966,-0.058,0.269,-1.709,-0.061,-1.343,-1.011,-73.776
-0.956,-0.028,0.278,3.54,0.305,2.747,0.16,-73.452
-1,-0.039,0.271,1.953,-2.38,-2.197,-0.433,-74.246
-0.968,0.004,0.239,7.69,-0.732,-3.113,-1.74,-74.698
-0.865,-0.202,0.272,-19.226,-9.155,-21.118,-3.865,-73.911
-0.752,-0.184,0.079,-42.419,-43.884,-45.166,-6.516,-75.026
-0.758,0.339,-0.134,-97.9,-59.265,-62.195,-0.719,-82.193
-0.612,0.149,-0.481,-80.627,-70.129,-82.458,1.966,-84.573
-0.404,0.385,-0.667,-60.974,-70.923,-82.886,13.839,-61.236
-0.111,0.687,-0.992,-83.923,-71.106,-94.971,27.829,-34.363
0.064,0.525,-1.033,-55.664,-69.885,-95.276,27.531,-16.376
0.297,0.545,-0.915,-26.245,-51.025,-83.862,30.662,-2.112
0.467,0.399,-0.974,-7.996,-36.255,-64.026,28.434,9.111
0.516,0.255,-0.807,34.668,-26.855,-50.781,23.489,18.124
0.535,0.32,-0.982,18.188,1.465,-2.319,20.307,24.535
0.567,0.177,-0.785,-0.977,-2.258,4.7,15.614,29.222
0.502,0.078,-0.808,-14.343,-7.812,3.357,11.741,31.346
0.533,0.188,-0.834,-13.977,-1.343,3.174,10.743,31.462
0.575,0.12,-0.841,1.221,0.366,2.197,8.175,33.283
0.492,0.104,-0.833,-3.54,4.822,5.127,7.123,32.092
0.531,0.118,-0.825,-10.437,0.244,2.93,7.64,32.266
0.559,0.079,-0.828,-2.502,-4.456,-0.854,6.071,32.74
aX,aY,aZ,gX,gY,gZ,Roll,Pitch
0.552,0.012,-0.854,-0.244,-8.362,2.441,4.526,32.451
0.628,0.191,-0.649,35.767,21.484,-7.019,5.894,35.5
0.53,0.007,-0.816,7.935,-1.282,-3.967,4.284,35.676
0.63,0.021,-0.774,18.066,-6.653,-15.259,3.42,37.038
0.574,0.086,-0.763,-3.967,-7.141,4.211,4.568,38.064
0.579,0.156,-0.934,-1.16,-0.244,8.667,3.841,35.051
0.749,0.552,-1.134,20.142,38.33,92.041,10.471,34.419
0.626,0.658,-1.182,49.438,87.952,159.851,17.014,30.646
0.402,0.639,-1.223,115.356,70.557,176.086,21.631,25.68
-0.033,0.48,-0.78,101.074,50.171,156.128,26.563,19.574
-0.445,0.03,-0.522,99.426,49.438,115.662,25.737,7.606
-0.827,-0.063,-0.089,77.698,62.866,78.247,21.434,-17.692
-0.836,-0.186,0.476,39.063,44.983,20.691,6.372,-66.069
-0.953,0.004,0.239,16.113,5.005,6.165,-4.034,-85.518
-0.974,0.103,0.196,-3.906,2.319,0.366,-2.213,-76.915
-0.995,0.054,0.107,-15.93,1.16,-0.305,-0.366,-74.831
-0.95,0.06,0.16,-0.549,-1.221,3.845,3.219,-79.233
-0.952,0.075,0.199,-1.343,-0.061,3.723,4.267,-79.399
-0.951,0.114,0.278,-0.122,2.319,0.793,4.43,-78.2
-0.976,0.085,0.178,-4.761,1.16,0.732,4.878,-77.05
-0.959,0.043,0.186,-2.014,1.099,-1.709,4.608,-76.832
-0.941,-0.017,0.18,-1.831,-1.038,-0.916,3.276,-77.461
-0.942,-0.062,0.227,-21.667,-5.188,-7.996,0.711,-78.578
-0.903,-0.074,0.128,-53.833,-32.715,-57.739,-1.665,-78.992
-0.791,0.485,-0.074,-80.994,-10.62,-67.566,5.258,-80.99
-0.623,0.344,-0.298,-91.248,-23.926,-67.932,12.005,-77.991
-0.385,0.685,-0.529,-97.778,-40.955,-94.482,27.126,-58.824
-0.151,0.833,-0.833,-80.139,-49.561,-102.234,41.962,-33.745
0.092,0.899,-0.862,-81.787,-52.124,-109.131,45.222,-15.918
0.364,0.466,-0.924,-56.396,-55.115,-83.74,42.467,-1.073
0.456,0.632,-0.965,-3.113,-42.419,-85.266,37.675,9.457
0.559,0.281,-0.876,33.752,-24.536,-58.533,30.197,18.951
0.6,0.231,-0.732,15.625,-24.17,-35.522,21.833,27.2
0.61,0.212,-0.866,17.212,4.822,-7.202,18.314,31.039
0.669,0.15,-0.781,0.183,-1.709,2.869,12.13,35.878
0.706,0.154,-0.635,-13.062,-5.005,6.592,10.656,39.775
0.608,0.163,-0.796,-8.789,5.249,3.235,9.578,39.442
0.605,0.112,-0.789,-0.427,1.77,0.549,8.31,40.254
0.565,0.094,-0.829,2.136,5.066,1.526,7.571,38.765
0.584,0.053,-0.804,-9.216,2.563,1.099,6.036,36.057
0.579,0.083,-0.827,-13.184,-3.357,3.174,4.89,35.542
aX,aY,aZ,gX,gY,gZ,Roll,Pitch
0.596,0.061,-0.777,5.92,-2.625,-1.892,4.18,35.586
0.587,0.068,-0.79,5.92,5.493,0.305,3.816,36.187
0.582,0.079,-0.753,-7.08,2.747,4.089,4.224,36.578
0.566,-0.004,-0.798,-14.404,1.404,1.831,2.976,36.74
0.569,0.024,-0.76,8.667,-1.343,-2.747,2.45,36.59
0.632,0.037,-0.822,-4.333,0.122,9.033,1.969,36.855
0.653,0.5,-1.029,2.991,23.926,62.5,7.57,35.024
0.622,0.424,-1.136,25.696,62.073,114.99,12.354,32.585
0.449,0.615,-1.104,64.27,92.59,140.808,18.451,28.249
0.124,0.516,-0.881,92.529,67.078,135.437,24.333,21.747
-0.324,0.458,-0.737,89.844,57.007,122.07,26.977,11.32
-0.546,0.175,-0.368,75.5,55.664,102.173,29.62,-4.763
-0.726,0.208,-0.028,70.618,80.383,84.167,28.556,-31.207
-0.77,-0.23,0.202,27.466,38.269,40.039,13.512,-64.783
-0.951,-0.265,0.213,21.912,6.226,6.836,-2.154,-87.818
-0.911,0.004,0.237,-7.629,-2.563,-1.953,-4.747,-78.468
-0.932,0.06,0.255,3.784,0.305,3.54,-6.693,-74.258
-0.948,0.022,0.224,1.587,1.282,-1.099,-2.658,-75.81
-0.968,0.028,0.226,-0.549,-1.892,1.77,1.68,-75.836
-0.95,-0.025,0.213,0.366,0.244,0.122,1.238,-76.359
-0.977,0.033,0.256,5.31,-3.662,-2.319,0.842,-76.54
-0.93,-0.03,0.31,-1.282,0.671,-1.099,0.081,-75.293
-0.929,-0.345,0.191,-33.386,-9.949,-14.587,-5.363,-74.694
-0.821,-0.119,0.018,-69.885,-26.184,-40.71,-7.031,-76.159
-0.68,0.249,-0.104,-80.017,-52.917,-52.124,-4.145,-81.841
-0.57,0.416,-0.489,-98.572,-67.749,-76.965,3.793,-81.783
-0.425,0.506,-0.667,-74.585,-65.674,-92.163,20.66,-56.914
-0.236,0.743,-0.954,-51.392,-67.505,-89.844,33.198,-33.145
0.079,0.607,-1.017,-51.086,-61.646,-91.553,34.281,-16.592
0.306,0.355,-0.968,-39.856,-54.749,-75.928,31.435,-3.732
0.453,0.383,-0.957,-18.738,-48.035,-65.002,27.902,7.763
0.526,0.266,-0.831,-17.822,-35.278,-46.631,21.879,18.389
0.648,0.273,-0.803,-19.348,-27.283,-23.071,17.497,27.08
0.625,0.074,-0.886,-5.371,-3.479,1.16,13.527,31.914
0.603,0.134,-0.774,-4.761,0.488,1.404,10.39,35.413
0.595,0.096,-0.839,-1.282,15.991,6.958,7.967,36.392
0.632,0.052,-0.783,4.517,1.648,-2.136,4.964,36.633
0.619,0.042,-0.782,-11.963,4.211,11.414,4.607,37.463
0.607,0.008,-0.772,3.052,-1.648,-1.892,2.816,37.62
0.605,0.054,-0.824,-4.089,5.31,-0.977,2.217,37.88
0.608,0.049,-0.767,-1.587,-2.197,-1.831,2.194,37.748
0.622,0.057,-0.792,2.136,-1.77,0.061,2.414,37.692
aX,aY,aZ,gX,gY,gZ,Roll,Pitch
0.599,0.028,-0.819,6.897,-7.08,-0.061,2.676,37.186
0.594,0.038,-0.911,22.156,26.855,-7.812,2.409,36.345
0.577,0.031,-0.813,-14.771,5.066,2.563,2.15,35.629
0.617,0.033,-0.794,-12.207,-0.061,-3.235,1.805,35.561
0.598,0.066,-0.8,-8.423,-3.113,7.751,2.348,35.689
0.651,0.229,-0.847,8.24,2.808,43.518,5.032,36.739
0.659,0.438,-0.987,-7.568,56.519,95.642,10.192,35.713
0.539,0.544,-1.195,58.533,80.505,127.747,15.692,31.233
0.27,0.447,-1.089,79.773,82.153,140.503,19.694,25.524
-0.186,0.479,-0.839,91.248,69.702,129.15,23.9,15.795
-0.443,0.275,-0.561,85.266,73.853,115.295,25.322,2.526
-0.762,0.248,-0.178,47.607,69.824,104.248,26.606,-20.284
-0.708,-0.288,-0.072,42.297,66.65,78.857,14.962,-49.442
-0.797,-0.423,0.273,51.697,33.569,7.324,-3.892,-78.148
-0.981,-0.143,0.313,-4.272,4.395,0,-10.518,-77.95
-1.042,-0.029,0.181,-2.075,1.465,-1.038,-13.798,-72.327
-0.992,-0.097,0.213,-12.024,3.784,2.014,-9.964,-72.531
-0.943,-0.019,0.138,-2.625,-0.061,-4.211,-4.073,-77.286
-0.946,0.005,0.244,-8.057,1.282,1.648,-2.001,-78.634
-0.91,-0.158,0.161,20.203,-0.61,-2.991,-3.97,-78.06
-0.993,-0.01,0.304,-3.235,-6.47,-5.127,-2.68,-77.149
-0.933,-0.177,0.275,-23.376,-7.69,-12.817,-4.959,-74.626
-0.876,-0.265,0.119,-13.916,-25.696,-41.077,-9.087,-74.168
-0.767,0.29,-0.068,-91.553,-44.312,-58.655,-2.551,-79.683
-0.606,0.058,-0.367,-110.718,-63.354,-68.176,-1.683,-88.161
-0.475,0.688,-0.565,-67.627,-73.547,-96.985,15.081,-66.727
-0.308,0.893,-0.827,-62.988,-72.327,-114.624,34.322,-39.05
0.163,0.458,-1.021,-19.653,-52.795,-106.873,34.616,-19.394
0.268,0.7,-0.906,-22.095,-47.546,-91.248,39.381,-4.683
0.469,0.515,-0.963,-12.207,-47.424,-67.81,34.292,7.463
0.546,0.256,-0.869,-18.066,-33.997,-53.833,25.593,18.897
0.66,0.146,-0.78,-13.184,-17.456,-23.499,21.913,26.659
0.606,0.194,-0.898,3.113,-2.686,-6.348,14.865,31.785
0.615,0.113,-0.727,-10.315,7.812,1.892,9.872,35.92
0.604,0.069,-0.788,-3.54,3.845,3.052,7.355,37.52
0.62,0.072,-0.801,1.038,0.061,-2.258,6.332,36.978
0.62,0.079,-0.778,-1.892,0.793,2.869,4.812,38.303
0.603,0.104,-0.863,0.671,2.075,0,4.559,37.006
0.6,0.031,-0.797,2.991,4.822,1.16,4.024,36.915
0.602,0.093,-0.767,-4.028,-1.465,-0.061,4.362,36.99
0.607,0.078,-0.801,-1.343,-1.77,1.038,4.335,36.641
aX,aY,aZ,gX,gY,gZ,Roll,Pitch
0.596,0.034,-0.78,1.648,-3.052,-0.061,3.405,37.316
0.579,0.077,-0.763,6.592,11.475,1.038,4.113,37.339
0.573,0.025,-0.787,-14.16,-1.282,3.296,3.126,36.87
0.561,0.015,-0.818,-1.77,1.404,-1.953,2.22,36.214
0.579,0.019,-0.838,4.578,6.592,-2.136,1.981,35.532
0.612,0.368,-0.822,20.325,1.953,40.527,6.077,35.225
0.629,0.572,-1.063,-9.155,54.993,103.271,12.85,32.96
0.557,0.459,-1.194,50.537,90.393,137.756,17.192,29.717
0.208,0.49,-0.999,72.266,90.515,144.104,22.568,24.063
-0.214,0.451,-0.768,82.275,68.42,126.404,25.184,14.754
-0.434,0.209,-0.58,78.43,64.209,115.906,24.426,1.726
-0.739,0.204,-0.297,54.321,66.406,92.773,25.07,-21.653
-0.866,-0.337,-0.115,64.453,52.49,81.665,10.439,-50.815
-0.834,-0.468,0.199,52.368,41.748,23.865,-7.494,-72.905
-0.95,-0.182,0.266,-9.033,-3.296,-6.348,-13.006,-76.963
-1.044,-0.128,0.151,-16.357,-2.869,2.747,-16.658,-71.684
-1.001,-0.244,0.146,-7.019,2.197,1.404,-14.677,-71.58
-0.945,-0.073,0.205,5.92,0,-2.38,-8.885,-75.876
-0.912,-0.067,0.123,-7.019,-1.099,-0.061,-7.387,-78.301
-1.025,-0.094,0.118,3.784,1.16,-5.31,-6.938,-78.909
-0.976,-0.125,0.18,5.554,-0.244,0.671,-5.242,-79.399
-1.013,-0.075,0.225,0.671,0.061,-9.521,-5.181,-79.322
-0.881,-0.23,0.221,-28.32,-12.817,-21.179,-7.527,-76.841
-0.745,-0.177,0.092,-67.505,-44.189,-49.5,-9.356,-75.418
-0.658,0.017,-0.326,-84.167,-73.792,-53.284,-8.014,-81.187
-0.712,0.412,-0.455,-70.496,-85.51,-83.557,0.42,-81.116
-0.317,0.309,-0.886,-60.608,-81.543,-98.267,10.965,-55.484
-0.183,0.406,-1.063,-28.137,-73.608,-95.093,19.067,-32.293
0.116,0.602,-0.916,-38.452,-58.838,-92.346,26.312,-16.331
0.291,0.339,-1.066,-30.396,-58.35,-74.158,22.828,-1.267
0.51,0.221,-0.986,-3.296,-55.054,-80.811,20.928,9.619
0.641,0.25,-0.857,13.794,-38.269,-65.735,18.87,20.909
0.629,0.271,-1.001,65.43,0.366,-25.085,13.726,27.048
0.627,0.077,-0.782,15.991,3.418,-9.583,10.653,32.938
0.625,0.075,-0.825,4.272,2.93,-2.197,8.927,35.561
0.6,0.05,-0.787,-10.681,-0.122,1.465,6.414,35.913
0.596,0.055,-0.81,-1.038,2.136,-1.587,3.645,37.307
0.596,0.062,-0.774,4.333,2.441,-0.671,3.459,37.026
0.581,0.098,-0.803,-4.456,6.165,2.502,3.826,36.686
0.595,0.035,-0.78,-1.648,0.854,1.465,3.621,36.692
0.569,0.005,-0.822,2.808,0.854,1.648,2.9,36.303
0.59,0.055,-0.83,0.61,0.244,-0.305,2.766,35.768
0.586,0.022,-0.82,-4.089,-5.432,2.747,1.677,35.716
aX,aY,aZ,gX,gY,gZ,Roll,Pitch
0.579,0.071,-0.794,-3.784,-5.249,1.77,2.192,35.405
0.57,0.099,-0.787,6.836,8.606,1.038,3.551,35.657
0.577,0.046,-0.81,-16.052,-1.648,4.272,3.454,35.673
0.564,0.048,-0.886,0.488,-2.441,-2.686,3.783,34.847
0.56,0.029,-0.857,10.864,3.723,-2.808,3.146,34.139
0.588,0.237,-0.914,-17.761,5.371,24.353,4.957,33.281
0.596,0.46,-0.96,-15.747,38.452,78.125,10.22,31.957
0.508,0.431,-1.141,41.016,78.857,121.887,14.48,29.128
0.268,0.497,-1.058,75.195,85.449,127.38,19.768,24.079
-0.013,0.505,-0.825,89.905,69.641,123.962,24.208,17.115
-0.404,0.435,-0.62,82.886,55.176,106.628,27.023,4.991
-0.651,0.209,-0.333,68.176,50.232,97.839,29.172,-13.727
-0.871,0.08,-0.183,39.856,53.65,93.872,24.009,-39.965
-0.752,-0.327,-0.057,22.583,65.857,84.473,7.711,-64.858
-0.774,-0.502,0.455,20.325,38.513,12.268,-10.036,-79.727
-0.9,-0.372,0.196,9.644,-10.498,-6.714,-18.631,-70.102
-1.025,-0.104,0.197,-20.203,-7.568,0.244,-20.228,-66.146
-0.97,-0.197,0.166,-3.052,0.61,-1.831,-17.152,-67.07
-0.97,-0.139,0.229,2.441,-0.488,-2.014,-11.631,-73.679
-0.961,-0.136,0.163,-4.089,-0.671,0.122,-8.209,-76.393
-0.962,-0.185,0.159,7.812,0.488,-1.038,-9.503,-75.855
-0.985,-0.129,0.188,-1.77,-3.967,-1.648,-8.494,-76.295
-0.99,-0.09,0.234,-2.563,-1.892,-6.042,-7.754,-76.721
-0.873,-0.236,0.217,-23.682,-14.16,-17.334,-9.341,-74.966
-0.858,-0.234,0.074,-40.833,-39.734,-42.297,-10.353,-75.013
-0.81,-0.086,-0.151,-57.19,-52.612,-55.603,-10.327,-78.043
-0.684,0.374,-0.315,-71.045,-59.998,-88.745,-3.25,-85.511
-0.391,0.303,-0.678,-65.369,-69.824,-102.905,6.892,-67.663
-0.314,0.56,-0.834,-39.856,-63.416,-100.403,21.256,-43.864
0.031,0.681,-0.978,-37.72,-53.711,-110.596,31.607,-21.789
0.272,0.479,-0.97,-30.396,-51.941,-98.328,30.149,-5.721
0.44,0.511,-0.906,-18.127,-39.917,-75.806,31.008,5.685
0.552,0.361,-0.865,11.963,-28.564,-66.895,27.301,16.996
0.631,0.203,-0.836,-1.221,-21.912,-38.635,20.998,25.929
0.625,0.263,-0.82,-8.057,-7.385,-2.625,18.074,31.435
0.616,0.035,-0.798,-2.991,-0.488,-1.038,11.835,35.271
0.643,0.038,-0.767,-3.296,0.671,0.488,7.505,37.607
0.583,-0.009,-0.818,9.46,4.517,-1.892,4.628,37.459
0.615,0,-0.804,-1.282,0.854,-1.404,0.916,37.628
0.601,0,-0.801,-2.319,1.099,3.296,0.414,37.429
0.595,0.003,-0.865,-1.648,-1.343,0.916,-0.089,36.059
0.599,-0.034,-0.834,5.249,2.258,-0.854,-0.448,36.109
0.597,0.014,-0.815,6.226,-2.747,-0.977,-0.252,35.819
0.6,-0.015,-0.789,-4.15,-2.991,2.136,-0.454,35.903
aX,aY,aZ,gX,gY,gZ,Roll,Pitch
0.596,0.007,-0.815,4.15,-5.737,0.61,-0.398,36.335
0.59,0.056,-0.763,7.751,14.465,-0.305,0.89,36.839
0.602,-0.015,-0.763,-8.484,-0.977,0.854,0.485,37.352
0.579,-0.023,-0.861,-2.197,-2.319,-1.038,0.369,36.484
0.601,0.007,-0.848,5.493,-1.16,-1.099,0.368,36.262
0.594,0.113,-0.861,9.644,-0.916,12.939,1.162,35.483
0.661,0.239,-0.926,-4.578,11.414,44.312,4.519,34.74
0.581,0.516,-1.038,9.277,52.856,89.722,11.229,32.842
0.519,0.483,-1.099,45.349,90.454,128.479,16.442,29.572
0.193,0.535,-1.09,67.139,85.754,139.099,21.117,23.399
-0.156,0.437,-0.862,87.769,71.533,123.657,24.898,14.068
-0.512,0.233,-0.486,66.895,65.125,104.187,25.503,0.655
-0.705,0.049,-0.373,49.988,70.435,97.29,22.355,-20.962
-0.851,-0.305,-0.075,34.729,82.642,72.571,8.232,-50.362
-0.737,-0.315,0.353,60.608,39.856,18.066,-6.733,-76.54
-0.843,-0.021,0.387,16.113,0.916,-0.488,-10.651,-78.104
-0.963,-0.136,0.194,4.456,-7.812,-3.784,-12.506,-71.164
-0.973,-0.123,0.202,-6.714,-1.099,-0.793,-9.148,-69.968
-0.957,-0.153,0.277,-4.883,2.441,0.916,-6.362,-72.969
-1.031,-0.124,0.188,2.441,-5.798,-1.343,-7.6,-75.512
-0.916,-0.077,0.229,-3.845,1.343,3.662,-6.844,-75.326
-0.958,-0.104,0.245,1.282,-2.136,-0.183,-6.572,-74.861
-0.974,-0.221,0.169,-6.409,0.183,1.282,-7.553,-75.767
-0.958,-0.247,0.214,-11.963,-6.47,-10.925,-9.441,-74.227
-0.849,-0.195,0.174,-55.725,-26.855,-23.01,-11.341,-73.463
-0.79,-0.16,0.003,-55.42,-57.434,-42.847,-12.827,-74.419
-0.654,0.207,-0.246,-59.631,-83.496,-71.472,-6.929,-82.616
-0.584,0.531,-0.603,-75.928,-97.9,-106.628,7.364,-74.975
-0.242,0.307,-0.952,-54.26,-80.811,-110.413,16.98,-48.573
0.029,0.377,-1.023,-46.021,-81.299,-100.342,24.121,-24.664
0.407,0.507,-1.058,-57.678,-77.82,-95.764,25.213,-5.542
0.492,0.308,-1.02,-36.255,-71.716,-72.876,20.04,9.03
0.681,0.207,-0.883,-11.78,-49.5,-48.95,18.042,20.866
0.611,0.298,-1.001,31.311,-7.507,-13.245,16.255,27.686
0.664,-0.01,-0.705,-4.822,-5.859,-2.197,10.43,33.509
0.656,-0.025,-0.73,-9.155,4.333,0.488,6.34,37.918
0.609,-0.058,-0.821,-5.493,2.38,3.54,2.829,37.883
0.654,-0.04,-0.774,-0.732,1.221,-2.38,-1.931,40.412
0.659,-0.009,-0.756,-3.601,0.854,-0.671,-1.889,39.893
0.609,-0.058,-0.824,-1.953,3.54,2.319,-2.332,38.52
0.634,0.002,-0.745,-0.61,7.263,-2.441,-1.505,39.492
0.648,-0.067,-0.764,-7.08,-1.282,2.991,-1.891,39.506
0.634,-0.046,-0.777,-1.953,-2.197,1.465,-2.418,39.022
aX,aY,aZ,gX,gY,gZ,Roll,Pitch
0.625,-0.054,-0.789,1.77,-4.15,1.709,-2.372,39.521
0.611,-0.037,-0.769,7.141,6.409,1.892,-2.926,39.033
0.641,-0.047,-0.728,-15.93,-2.075,-1.648,-2.665,39.287
0.61,-0.064,-0.816,-0.488,1.648,0.549,-2.92,38.652
0.678,-0.048,-0.843,3.418,-0.061,-0.305,-2.785,38.758
0.624,0.093,-0.822,-4.822,1.77,23.926,-0.933,38.484
0.636,0.284,-1,-4.7,23.254,50.903,3.508,36.117
0.636,0.345,-1.15,30.151,73.12,97.595,8.331,33.594
0.443,0.417,-1.082,55.786,97.107,118.835,13.681,29.051
0.082,0.475,-0.974,73.364,87.402,124.634,18.394,21.889
-0.271,0.458,-0.76,77.209,74.28,117.981,22.635,11.664
-0.594,0.165,-0.446,54.443,61.646,109.253,24.78,-5.384
-0.825,0.11,-0.208,50.232,67.139,90.942,22.753,-30.979
-0.726,-0.197,-0.14,40.771,74.341,83.74,10.565,-55.752
-0.691,-0.435,0.363,27.222,47.791,25.635,-7.089,-78.827
-0.858,-0.388,0.362,19.897,1.648,-5.859,-16.236,-72.386
-0.941,-0.146,0.322,8.667,-1.648,-6.042,-19.236,-65.329
-0.965,-0.154,0.22,-2.502,1.465,-2.136,-16.972,-63.895
-0.927,-0.215,0.235,0.549,1.16,5.188,-13.171,-68.495
-0.913,-0.22,0.179,5.737,0.366,-2.075,-10.777,-72.146
-0.967,-0.271,0.276,1.648,-0.427,1.099,-12.506,-71.628
-0.934,-0.178,0.269,0.732,-2.38,-0.427,-12.895,-70.771
-0.94,-0.202,0.282,-4.578,-3.113,-0.61,-12.622,-70.478
-0.971,-0.206,0.284,-9.766,-3.357,-2.686,-12.175,-69.79
-0.88,-0.395,0.187,-19.47,-20.142,-20.142,-14.243,-69.177
-0.766,-0.329,0.099,-52.002,-46.692,-37.659,-17.202,-68.277
-0.771,-0.033,-0.075,-76.66,-65.796,-64.209,-15.723,-72.27
-0.653,0.262,-0.378,-69.824,-88.44,-94.543,-9.16,-80.324
-0.452,0.392,-0.797,-74.219,-91.919,-96.008,5.772,-65.778
-0.316,0.639,-0.842,-40.405,-82.153,-97.046,22.575,-41.904
0.004,0.363,-1.042,-36.743,-63.232,-93.018,26.158,-22.166
0.309,0.256,-1.013,-27.649,-65.857,-87.891,23.916,-6.425
0.501,0.394,-0.903,-23.987,-67.261,-81.299,23.324,6.851
0.579,0.039,-0.949,-50.415,-59.387,-61.523,14.235,19.002
0.631,0.384,-1.07,18.066,-16.174,-27.283,13.636,26.346
0.636,0.003,-0.713,4.395,-0.671,-7.385,10.727,32.205
0.636,-0.098,-0.827,-6.165,-1.343,2.38,4.313,34.776
0.573,-0.024,-0.771,-21.057,2.441,2.136,3.606,36.123
0.706,-0.076,-0.552,0.183,0.366,-0.244,-2.923,41.625
0.612,-0.1,-0.778,-12.878,2.136,-1.038,-4.422,40.64
0.644,-0.115,-0.805,5.981,1.099,-1.099,-4.677,40.924
0.606,-0.087,-0.81,12.451,4.089,2.319,-5.537,40.86
0.631,-0.118,-0.748,3.967,0.061,0,-5.984,38.2
0.64,-0.104,-0.754,6.226,1.587,-1.892,-6.04,38.715
0.625,-0.051,-0.758,-4.089,-2.075,-0.122,-5.195,39.006
0.625,-0.111,-0.761,-0.854,-4.822,-0.366,-5.572,39.631
0.627,-0.114,-0.781,0.244,-0.183,1.16,-5.481,39.287
0.634,-0.121,-0.762,-0.244,-1.099,0.793,-5.712,39.132
aX,aY,aZ,gX,gY,gZ,Roll,Pitch
0.266,0.504,0.725,22.705,-3.54,4.395,33.129,16.727
0.317,0.515,0.744,-1.16,10.864,-2.747,32.813,18.035
0.309,0.542,0.704,-38.33,2.136,2.686,33.609,18.421
0.275,0.736,0.708,0.732,17.151,13.977,36.463,17.567
0.334,0.557,0.624,8.789,29.419,12.573,37.682,18.746
0.274,0.655,0.567,16.541,33.02,9.521,41.004,18.327
0.59,0.83,0.699,-37.781,19.592,-28.442,42.915,21.185
0.478,0.631,0.586,0.549,-15.015,-1.038,41.783,24.712
0.554,0.594,0.689,-42.542,-47.302,-6.287,40.513,27.049
0.375,0.82,0.758,-4.822,-115.417,22.278,40.345,26.735
0.105,0.762,0.646,25.024,-120.544,33.264,42.372,21.294
-0.031,0.73,0.68,19.409,-117.432,7.324,44.578,14.026
-0.336,0.564,0.39,48.523,-94.421,-22.644,49.265,1.707
-0.546,0.767,0.344,18.555,-90.637,-18.616,51.904,-13.018
-0.604,0.556,0.239,25.391,-70.435,-3.601,49.407,-26.091
-0.594,0.577,0.175,-9.705,-63.171,4.578,46.064,-37.394
-0.792,0.534,-0.019,-30.273,-45.837,11.414,42.676,-44.891
-0.848,0.737,-0.033,-14.282,-43.213,32.104,40.048,-49.405
-0.817,0.468,-0.247,26.55,-15.503,2.502,37.183,-52.756
-0.884,0.557,-0.221,1.404,2.014,-6.836,34.172,-54.84
-0.819,0.524,-0.163,4.639,10.986,-3.662,33.648,-54.761
-0.826,0.569,-0.195,-2.136,24.658,2.136,31.562,-55.82
-0.779,0.566,-0.013,-2.808,29.785,-2.014,33.385,-55.278
-0.829,0.459,-0.002,-8.85,42.908,4.272,32.886,-56.539
-0.818,0.612,0.113,-22.583,44.861,-9.521,34.136,-55.826
-0.661,0.68,0.199,-23.987,53.589,0.488,36.758,-52.895
-0.588,0.497,0.176,-10.742,70.496,2.319,37.432,-51.553
-0.426,0.602,0.167,-26.001,106.628,-3.357,42.849,-45.167
-0.323,0.677,0.718,-17.151,120.483,-26.184,46.125,-35.902
-0.176,0.721,0.634,-22.644,99.67,-35.645,47.726,-26.612
0.156,0.809,0.75,13.733,65.918,-30.823,49.565,-12.006
0.232,0.683,0.499,11.353,74.524,-29.297,48.008,-1.624
0.438,0.781,0.642,-1.038,59.937,-27.405,48.96,9.428
0.484,0.778,0.633,-1.343,22.217,0.305,47.016,18.309
0.48,0.825,0.392,23.865,2.502,-0.183,48.501,23.524
0.484,0.728,0.429,29.175,-0.183,-23.56,47.81,26.7
0.51,0.787,0.539,8.484,8.118,4.456,48.12,27.901
0.51,0.721,0.585,1.587,0.244,-3.296,47.754,28.697
0.54,0.683,0.538,17.09,0.061,9.399,44.941,29.667
0.463,0.621,0.494,30.09,-1.709,3.601,43.561,29.74
aX,aY,aZ,gX,gY,gZ,Roll,Pitch
0.455,0.684,0.449,23.987,6.775,-4.761,43.511,30.033
0.449,0.811,0.35,-16.968,-7.324,4.822,46.637,29.712
0.422,0.807,0.372,9.155,5.005,11.597,50.104,28.017
0.447,0.734,0.344,32.898,21.484,16.418,52.472,27.595
0.487,0.697,0.525,16.357,22.339,-5.981,51.732,27.693
0.516,0.645,0.49,-11.23,1.892,-15.076,48.517,29.109
0.459,0.685,0.654,-1.526,-28.992,9.644,44.867,29.204
0.591,0.847,0.796,-0.305,-101.135,29.663,41.859,28.48
0.352,0.77,0.678,17.029,-144.104,32.776,42.24,25.959
-0.08,0.536,0.562,36.072,-146.545,20.63,43.44,18.69
-0.226,0.628,0.523,51.941,-116.516,-8.24,46.521,9.58
-0.516,0.485,0.242,27.222,-110.779,-13,49.597,-8.504
-0.661,0.665,0.125,1.099,-77.881,-20.935,48.115,-28.497
-0.74,0.746,0.003,-14.16,-53.955,-2.625,47.389,-38.68
-0.775,0.66,-0.136,-9.583,-40.527,25.574,43.412,-46.361
-0.774,0.609,-0.12,-4.517,-17.822,12.573,42.241,-47.7
-0.849,0.564,-0.101,0.854,-6.226,4.089,39.259,-50.302
-0.828,0.538,-0.177,-2.808,2.625,-0.427,35.964,-52.989
-0.847,0.538,-0.257,15.503,32.593,-2.014,33.791,-54.604
-0.729,0.455,-0.175,-3.845,61.096,2.38,32.194,-55.769
-0.692,0.602,0.137,-34.668,77.026,-10.376,34.259,-54.79
-0.633,0.711,0.208,-28.381,86.304,-5.31,38.471,-51.496
-0.445,0.54,0.384,-10.925,115.295,-12.939,42.044,-46.474
-0.213,0.794,0.817,-27.71,118.469,-25.146,46.476,-32.907
-0.035,0.744,0.755,-19.653,91.187,-28.198,47.705,-20.591
0.193,0.841,0.627,-1.221,82.092,-25.085,47.968,-7.309
-0.023,1.474,0.547,-13.916,49.255,-5.371,54.514,-0.945
0.428,0.844,0.475,-12.573,69.153,-27.161,57.676,6.999
0.569,0.807,0.474,27.954,33.813,-5.066,58.582,14.543
0.552,0.745,0.347,1.099,-0.305,3.479,58.281,19.591
0.414,0.85,0.232,-7.141,10.742,18.311,52.543,28.678
0.507,0.705,0.319,36.011,-0.488,-4.456,51.642,31.008
0.496,0.852,0.313,-2.93,2.38,-5.798,53.758,30.234
0.646,1.072,0.531,-0.61,-3.54,13.428,54.421,28.811
0.517,0.737,0.294,17.212,5.798,4.639,52.219,30.552
0.542,0.807,0.358,45.288,-1.648,5.432,52.507,30.223
aX,aY,aZ,gX,gY,gZ,Roll,Pitch
0.471,0.825,0.338,21.606,-2.747,1.16,52.359,30.041
0.498,0.815,0.277,-38.513,4.211,-5.981,53.104,30.615
0.428,0.793,0.278,19.348,12.39,-1.587,54.553,29.17
0.488,0.808,0.319,23.865,13.855,8.911,55.341,28.579
0.504,0.515,0.438,52.612,29.907,6.592,51.591,30.852
0.58,0.902,0.46,-9.888,7.874,-10.925,50.392,30.713
0.591,0.838,0.566,-9.949,-33.386,5.127,47.53,31.404
0.627,0.977,0.663,26.306,-105.957,27.588,45.883,30.75
0.327,0.836,0.618,51.819,-120.789,16.174,48.557,26.636
0.075,0.628,0.558,43.945,-103.516,6.042,48.502,21.722
-0.304,0.525,0.591,46.997,-95.947,-10.254,49.463,10.713
-0.442,0.549,0.512,7.141,-95.703,-6.897,47.759,-5.748
-0.662,0.573,0.387,21.423,-75.562,1.648,42.965,-23.532
-0.769,0.438,0.21,-14.832,-55.542,-2.869,37.056,-38.989
-0.834,0.463,0.134,-5.188,-37.17,0.305,34.183,-48.752
-0.84,0.418,0.001,1.282,-16.357,10.071,30.666,-56.848
-0.904,0.445,0.039,-1.648,3.357,-3.906,27.634,-61.662
-0.859,0.453,0.059,3.662,18.921,0.244,27.309,-62.438
-0.837,0.484,0.105,2.747,41.687,6.836,27.582,-62.227
-0.696,0.431,0.259,-8.057,61.34,19.409,28.589,-60.411
-0.724,0.403,0.419,-32.959,67.566,15.503,28.76,-57.812
-0.557,0.55,0.45,-41.626,83.557,2.075,31.3,-51.506
-0.383,0.573,0.618,-32.532,85.876,1.465,33.68,-41.996
-0.214,0.677,0.729,-43.335,101.563,-17.7,37.166,-31.019
0.106,0.753,0.781,-41.443,76.782,-32.288,42.526,-16.121
0.19,0.788,0.482,-38.086,62.927,-20.752,46.73,-4.503
0.284,1.1,0.499,-39.795,51.27,-29.541,52.818,5.051
0.416,0.868,0.448,3.906,18.982,0.061,55.374,13.506
0.415,0.863,0.249,-10.986,0.793,-0.061,59.579,18.121
0.372,0.835,0.264,14.526,2.625,-3.54,60.386,20.659
0.488,0.686,0.392,47.974,-3.235,-7.019,56.338,25.651
0.391,0.832,0.271,-1.16,0.732,-3.662,57.618,25.954
0.467,0.808,0.332,2.808,2.502,7.446,56.026,26.797
0.487,0.918,0.343,7.629,-3.662,-5.92,55.026,27.583
aX,aY,aZ,gX,gY,gZ,Roll,Pitch
0.397,0.828,0.329,34.119,-1.099,0.793,57.479,25.721
0.41,0.898,0.312,-38.757,1.038,-6.042,57.507,25.494
0.387,0.879,0.278,16.296,13,0.061,59.176,24.193
0.461,0.828,0.311,-16.602,5.432,11.475,59.018,24.403
0.513,0.451,0.66,-36.316,-29.297,1.221,52.328,27.284
0.487,0.92,0.453,-7.385,-31.738,7.385,50.796,27.704
0.477,1.153,0.689,-7.263,-97.778,25.024,49.47,26.053
0.257,1.049,0.502,54.504,-119.263,46.265,51.094,22.19
0.001,0.764,0.533,57.312,-98.206,11.475,57.277,15.338
-0.243,0.662,0.544,58.899,-88.379,5.981,57.391,6.563
-0.458,0.606,0.326,21.24,-117.371,8.545,57.599,-6.959
-0.689,0.529,0.156,-4.456,-93.872,16.785,50.821,-24.85
-0.788,0.539,0.019,8.301,-35.339,10.803,44.045,-40.394
-0.759,0.455,0.028,8.667,-23.804,3.54,37.786,-50.847
-0.84,0.478,-0.042,8.789,-26.917,16.357,33.007,-56.871
-0.952,0.356,-0.183,14.282,-0.183,4.578,28.657,-61.196
-0.855,0.414,-0.112,6.897,16.724,-10.986,26.472,-63.062
-0.879,0.513,-0.095,-3.479,32.654,-7.446,26.376,-62.778
-0.756,0.428,-0.041,-9.888,54.993,2.686,26.264,-62.848
-0.684,0.64,0.142,-29.358,78.552,-2.319,32.149,-57.8
-0.537,0.708,0.298,-48.096,85.449,-11.292,38.56,-51.039
-0.385,0.594,0.591,-18.25,91.492,-14.709,42.793,-42.592
-0.212,0.848,0.846,-40.527,99.792,-31.86,46.894,-28.385
-0.032,0.955,0.512,-36.255,81.787,-32.959,50.829,-16.905
0.148,0.932,0.537,-25.513,61.768,-25.513,52.764,-6.585
0.329,0.883,0.399,-1.282,64.087,-32.104,57.502,3.12
0.302,1.019,0.442,-8.423,12.207,-7.202,61.793,9.998
0.323,0.753,0.176,1.221,0.183,-1.709,62.035,15.731
0.413,0.854,0.37,21.362,16.174,-8.24,60.976,19.902
0.384,0.817,0.24,30.579,-4.028,-10.315,61.379,21.257
0.44,0.867,0.295,4.272,2.502,0.488,60.03,24.248
0.539,0.792,0.308,15.381,4.15,2.747,57.142,26.616
aX,aY,aZ,gX,gY,gZ,Roll,Pitch
0.387,0.813,0.32,15.076,-1.831,4.639,57.43,26.638
0.382,0.902,0.355,-77.393,8.728,-7.812,57.313,25.844
0.336,0.881,0.146,-10.681,7.08,11.597,59.521,24.717
0.411,0.823,0.323,25.33,31.799,2.014,60.946,22.812
0.503,0.895,0.616,19.47,1.282,-4.211,58.128,23.323
0.448,0.946,0.346,-21.973,0.732,-16.724,57.937,23.944
0.504,1.233,0.486,-46.814,-100.464,40.588,56.567,23.546
0.453,1.054,0.386,51.208,-119.507,53.894,57.334,22.895
-0.021,0.817,0.337,64.453,-102.356,31.555,62.803,17.69
-0.199,0.709,0.376,51.941,-92.102,-0.793,65.374,10.116
-0.368,0.715,0.408,35.095,-81.848,-4.944,65.346,-2.138
-0.48,0.713,0.291,14.709,-68.604,9.277,59.068,-18.074
-0.65,0.657,0.207,3.174,-55.359,27.466,52.726,-28.895
-0.727,0.547,0.117,-0.488,-38.696,22.888,47.069,-38.236
-0.807,0.512,0.036,-2.502,-25.513,25.879,41.534,-46.653
-0.858,0.437,0.04,-7.324,2.258,-1.77,35.058,-54.255
-0.877,0.55,0.071,-3.235,2.686,-1.343,31.952,-57.753
-0.827,0.46,-0.03,4.639,18.677,0.244,30.162,-59.779
-0.794,0.423,0.024,1.099,42.419,6.104,29.114,-60.835
-0.741,0.587,0.246,-25.513,62.012,-12.451,31.839,-57.739
-0.588,0.668,0.365,-29.907,83.252,-8.057,35.391,-52.994
-0.429,0.742,0.521,-53.833,88.074,-8.362,40.832,-43.567
-0.151,0.787,0.49,-72.51,89.111,-12.817,48.032,-30.628
-0.125,0.892,0.497,-37.781,73.914,-29.297,53.619,-19.677
0.061,1.027,0.49,-31.738,84.167,-30.334,58.65,-9.173
0.199,0.916,0.232,-19.836,69.58,-34.302,64.719,-0.229
0.351,1.015,0.297,7.385,55.908,-38.208,67.518,6.689
0.391,0.977,0.285,5.554,13.123,0.061,67.318,13.577
0.386,0.996,0.065,-52.917,-1.465,-2.197,67.827,18.334
0.392,0.828,0.181,13.855,2.991,-7.263,65.616,21.256
0.38,0.917,0.173,7.324,6.226,-1.343,65.42,22.255
0.443,0.864,0.245,8.911,5.188,5.127,64.329,23.587
0.328,0.885,0.243,10.986,-3.784,2.625,63.295,23.231
0.375,0.913,0.208,-14.709,-2.136,6.775,63.864,22.501
aX,aY,aZ,gX,gY,gZ,Roll,Pitch
0.398,0.833,0.236,34.607,0.854,4.028,62.704,23.116
0.242,0.904,0.353,-81.482,3.662,-10.132,64.333,20.026
0.303,0.894,0.061,-10.437,9.583,6.836,66.072,19.872
0.377,0.885,0.089,18.799,20.447,6.165,66.708,20.184
0.418,0.916,0.341,13,-2.136,-5.127,66.244,19.93
0.387,0.967,0.153,6.531,-20.691,6.348,66.148,21.775
0.413,1.016,0.609,19.043,-73.853,23.376,62.242,21.906
0.289,0.989,0.599,52.917,-126.892,38.086,59.685,19.553
0.049,0.821,0.489,65.125,-105.53,8.789,60.209,15.091
-0.12,0.738,0.473,51.514,-95.215,-3.845,57.637,8.603
-0.359,0.697,0.489,25.879,-72.998,3.601,57.673,-2.091
-0.539,0.632,0.384,12.634,-66.162,2.93,54.327,-15.805
-0.655,0.538,0.328,20.447,-60.791,-0.061,47.763,-28.364
-0.743,0.505,0.154,0.061,-50.476,16.541,41.67,-40.037
-0.867,0.5,0.112,6.836,-25.757,8.423,36.218,-49.622
-0.864,0.493,0.072,2.075,-2.075,4.089,32.475,-55.602
-0.858,0.509,0.067,7.08,9.888,2.869,30.877,-58.433
-0.775,0.478,0.053,2.991,35.583,4.639,30.38,-59.227
-0.762,0.458,0.093,-21.301,64.514,12.024,30.655,-58.98
-0.544,0.516,0.325,-29.785,76.965,18.372,33.29,-55.313
-0.476,0.521,0.552,-49.5,89.722,2.502,35.628,-48.991
-0.341,0.693,0.645,-75.256,94.727,-9.521,39.367,-37.968
-0.103,0.854,0.586,-56.274,100.708,-7.629,45.187,-23.704
0.083,1.025,0.49,-83.984,85.632,-32.41,51.921,-12.302
0.26,0.981,0.389,-28.809,84.167,-32.41,59.263,-1.413
0.406,0.92,0.285,-2.686,70.251,-27.466,63.737,8.804
0.443,0.947,0.266,18.555,24.719,-5.981,64.334,16.097
0.401,0.83,0.134,0.977,-0.61,-15.259,63.273,21.497
0.433,0.855,0.161,9.583,-2.075,-7.019,62.07,24.737
0.414,0.931,0.181,6.775,4.333,-2.319,62.611,24.913
0.43,0.833,0.211,8.484,0.122,4.456,62.281,25.495
0.453,0.891,0.201,9.46,-5.981,2.38,61.751,25.714
aX,aY,aZ,gX,gY,gZ,Roll,Pitch
0.396,0.939,0.256,36.682,-3.174,3.174,62.227,24.615
0.5,0.839,0.296,-71.838,6.714,-10.925,59.989,26.09
0.444,0.886,0.208,-6.775,8.972,-1.526,60.221,25.964
0.464,0.84,0.193,14.954,11.047,2.686,59.787,26.425
0.449,0.801,0.26,29.846,6.592,1.221,58.178,27.955
0.439,0.729,0.063,35.278,-8.179,-7.812,59.269,28.294
0.476,0.896,0.375,-7.935,-29.419,16.724,58.104,28.358
0.541,1.018,0.499,-4.944,-89.722,31.921,56.853,27.577
0.373,0.974,0.525,63.171,-117.249,29.541,57.092,25.108
0.078,0.794,0.508,70.984,-119.69,2.197,56.835,19.487
-0.103,0.737,0.509,46.631,-100.708,-23.987,57.717,12.314
-0.448,0.661,0.468,30.518,-92.957,3.601,57.56,-1.525
-0.522,0.516,0.45,24.902,-73.303,3.906,51.218,-16.649
-0.669,0.482,0.272,14.893,-55.298,3.784,44.552,-30.683
-0.793,0.506,0.226,-1.099,-35.278,-2.625,37.56,-43.244
-0.823,0.523,0.125,13.916,-15.137,6.042,33.984,-50.771
-0.87,0.423,0.087,8.606,0.305,6.409,30.859,-56.876
-0.882,0.493,0.102,0.671,18.921,7.385,29.684,-59.071
-0.785,0.51,0.166,-10.132,40.405,13.306,29.862,-59.151
-0.725,0.487,0.299,-33.997,63.293,18.433,29.896,-58.214
-0.588,0.424,0.447,-33.264,84.351,18.494,31.297,-53.998
-0.395,0.531,0.678,-49.377,106.384,3.784,33.423,-44.73
-0.198,0.807,0.716,-77.454,105.225,-9.521,38.127,-31.556
-0.036,0.883,0.737,-47.424,96.497,-20.874,42.861,-18.234
0.226,0.899,0.533,-20.508,83.984,-16.602,49.196,-5.608
0.281,0.909,0.425,-54.932,66.895,-16.235,55.257,3.686
0.397,0.897,0.404,-7.812,44.495,-11.414,57.659,11.804
0.39,0.868,0.32,4.944,8.301,-0.732,59.295,18.138
0.392,0.894,0.194,-2.197,0.183,-1.892,60.927,20.952
0.389,0.878,0.226,3.601,2.93,0.244,61.253,22.858
0.4,0.979,0.18,-1.465,2.869,-7.141,63.306,22.806
0.364,0.86,0.167,24.536,-1.587,-10.986,64.471,22.706
0.452,0.882,0.275,15.503,8.24,0.549,63.237,23.468
0.42,0.8,0.317,8.057,3.357,2.502,61.824,24.179
0.389,0.767,0.323,27.771,-4.089,3.54,59.46,25.022
aX,aY,aZ,gX,gY,gZ,Roll,Pitch
0.464,0.745,0.376,8.179,0.671,-0.183,56.006,26.59
0.549,0.983,0.415,-56.824,2.991,-7.629,54.901,26.879
0.441,0.835,0.286,-4.395,6.409,2.136,55.213,27.017
0.536,0.638,0.288,65.369,16.296,-5.31,53.001,29.752
0.476,0.786,0.312,3.54,-0.244,12.878,53.639,29.813
0.548,0.853,0.458,-59.326,-28.625,4.211,52.248,30.549
0.551,0.883,0.389,-28.381,-55.298,5.676,51.003,31.272
0.498,1.111,0.513,-1.038,-112.427,37.659,53.763,27.399
0.216,0.972,0.438,72.815,-115.234,41.382,56.242,23.235
-0.085,0.755,0.492,88.257,-105.103,2.197,59.653,15.873
-0.373,0.67,0.527,36.438,-94.421,6.836,60.478,3.636
-0.532,0.542,0.437,41.992,-93.445,14.832,55.146,-12.488
-0.693,0.438,0.329,5.066,-82.52,7.751,44.425,-29.338
-0.791,0.397,0.149,12.939,-47.241,7.874,36.257,-43.657
-0.878,0.43,0.035,-4.089,-32.227,9.766,30.678,-54.799
-0.922,0.385,-0.032,6.897,-14.282,5.066,26.445,-62.367
-0.92,0.377,-0.018,3.052,2.747,-1.221,24.344,-65.564
-0.911,0.432,0.006,-2.014,16.418,3.235,24.096,-65.904
-0.855,0.375,0.018,-11.108,38.086,19.409,23.498,-66.499
-0.771,0.249,0.077,-3.906,51.453,15.442,22.493,-67.467
-0.697,0.356,0.258,-44.922,76.782,-8.362,23.447,-65.761
-0.622,0.689,0.468,-61.829,91.614,-17.639,28.629,-57.723
-0.371,0.701,0.63,-49.194,89.05,-17.639,35.014,-45.055
-0.185,0.87,0.669,-54.26,86.548,-25.391,43.474,-29.544
-0.006,0.857,0.574,-24.963,78.735,-22.705,49.924,-16.89
0.223,0.932,0.591,-10.193,71.594,-30.212,53.49,-4.651
0.362,0.83,0.352,-13.306,66.467,-35.156,57.525,5.459
0.568,0.865,0.425,10.132,55.542,-36.194,57.078,16.05
0.53,0.812,0.386,0.122,5.859,-2.502,54.744,23.55
0.511,0.814,0.18,-4.761,-4.639,9.46,54.324,28.814
0.496,0.855,0.236,14.038,7.629,6.226,53.937,30.568
0.47,0.89,0.344,10.803,8.789,3.296,55.565,29.408
0.48,0.791,0.193,1.587,-1.16,-2.747,56.982,29.338
0.581,0.786,0.288,18.616,5.737,2.014,55.438,30.179
0.505,0.768,0.26,4.639,-2.991,1.099,54.498,30.838
0.505,0.78,0.299,16.479,1.038,1.709,53.442,32.166
aX,aY,aZ,gX,gY,gZ,Roll,Pitch
0.501,0.845,0.341,21.606,-1.892,-0.427,52.892,31.647
0.54,0.841,0.287,-38.94,2.991,-6.348,53.785,30.751
0.508,0.784,0.305,7.202,6.958,-4.822,53.632,30.564
0.501,0.803,0.231,4.517,5.615,0.977,54.261,30.529
0.523,0.788,0.319,-10.071,3.723,12.024,53.672,31.253
0.45,0.724,0.362,10.864,-10.803,11.292,53.113,30.769
0.497,1.03,0.546,-8.118,-63.477,9.399,53.762,28.377
0.483,1.02,0.656,11.475,-130.188,18.86,52.702,25.865
0.332,1.014,0.589,76.782,-130.066,26.855,53.699,22.023
-0.023,0.645,0.502,66.65,-126.77,-8.423,54.654,16.463
-0.341,0.615,0.495,43.152,-114.624,-5.066,55.229,6.447
-0.542,0.526,0.324,28.992,-85.022,1.343,54.539,-9.627
-0.695,0.412,0.197,6.348,-74.829,11.78,44.892,-30.953
-0.874,0.388,-0.127,-1.892,-55.054,30.762,36.655,-48.964
-0.95,0.365,0.007,8.057,-21.545,15.076,28.707,-60.419
-0.935,0.298,-0.136,3.418,2.991,-3.479,22.944,-67.037
-0.941,0.385,-0.104,-1.099,23.926,-8.057,21.122,-68.192
-0.876,0.419,0.007,-15.808,54.749,-7.263,21.58,-68.152
-0.7,0.517,0.215,-38.818,69.763,-4.395,25.128,-64.87
-0.499,0.529,0.327,-50.476,81.787,-4.211,31.257,-57.746
-0.389,0.719,0.549,-19.897,106.079,-4.028,38.992,-45.231
-0.279,0.676,0.754,-32.104,112.732,-5.188,42.921,-31.402
0.025,0.779,0.719,-36.926,100.952,-12.39,45.99,-17.694
0.278,0.828,0.683,-0.916,123.169,-23.743,47.726,-5.166
0.491,0.771,0.524,-3.296,65.735,-10.742,48.225,7.219
0.521,0.805,0.415,-10.925,61.768,-11.841,49.859,18.402
0.52,0.839,0.395,30.823,15.991,-6.409,50.125,25.353
0.504,0.721,0.244,-9.521,-0.732,0.793,50.604,30.112
0.552,0.753,0.396,101.746,4.211,8.484,50.73,31.377
0.463,0.652,0.233,-0.549,-2.38,-11.292,51.003,32.304
0.586,0.84,0.335,6.165,2.747,-2.197,50.712,33.306
0.463,0.793,0.296,-10.62,-0.61,0.977,51.491,32.098
0.49,0.815,0.331,-8.606,1.831,6.531,53.058,31.063
0.492,0.795,0.299,32.288,-2.258,7.568,53.6,30.267
aX,aY,aZ,gX,gY,gZ,Roll,Pitch
0.5,0.72,0.341,25.085,1.16,2.136,53.375,29.986
0.51,0.933,0.355,-48.035,2.686,-4.333,53.745,29.483
0.449,0.8,0.293,0,5.249,-2.258,54.258,29.166
0.556,0.699,0.329,27.039,15.747,2.197,52.628,30.517
0.506,0.87,0.446,37.354,7.141,11.597,53.187,29.329
0.512,0.785,0.427,-11.963,-5.554,-6.958,51.422,30.092
0.719,0.873,0.646,-32.837,-70.313,-5.615,47.628,31.646
0.572,0.989,0.564,-14.221,-135.315,23.682,48.534,29.451
0.285,0.981,0.55,78.918,-128.113,26.428,50.209,26.232
-0.013,0.714,0.558,78.796,-118.164,-5.615,51.847,20.209
-0.272,0.537,0.491,52.368,-113.708,-14.038,55.219,8.391
-0.486,0.55,0.408,14.221,-91.492,0.549,53.412,-8.063
-0.717,0.389,0.283,4.761,-53.467,-6.409,43.713,-28.022
-0.829,0.51,0.192,-12.695,-43.701,6.348,36.5,-43.662
-0.857,0.426,0.004,4.761,-14.343,2.441,31.8,-54.341
-0.907,0.399,0.028,-2.136,9.705,-1.831,27.232,-61.51
-0.861,0.499,0.144,7.141,37.109,4.7,27.83,-61.565
-0.728,0.349,0.281,6.409,50.476,21.118,26.307,-62.653
-0.658,0.441,0.439,-46.753,61.34,15.869,27.254,-58.812
-0.574,0.549,0.503,-64.941,62.622,3.845,30.389,-50.93
-0.411,0.619,0.525,-52.307,77.515,-3.113,33.616,-42.094
-0.25,0.768,0.66,-39.673,89.661,-14.038,39.854,-30.692
-0.069,0.826,0.634,-19.531,74.28,-20.935,46.05,-19.869
0.08,0.863,0.627,-34.485,66.895,-24.231,50.55,-9.391
0.293,0.877,0.389,-15.259,62.134,-43.579,55.271,0.76
0.46,1.031,0.448,-4.211,53.101,-19.226,58.172,10.399
0.413,0.845,0.332,4.944,16.479,3.113,58.837,17.156
0.393,0.885,0.264,-2.502,-6.165,-2.014,59.797,21.743
0.408,0.825,0.224,4.578,1.953,-0.061,59.643,23.761
0.444,1.075,0.284,-16.418,-4.7,-10.498,61.238,23.611
0.426,0.754,0.202,20.874,-2.441,-10.071,61.343,24.472
0.563,0.86,0.31,14.832,8.179,1.16,59.076,26.707
0.418,0.802,0.34,26.001,3.113,-0.061,58.104,26.759
aX,aY,aZ,gX,gY,gZ,Roll,Pitch
0.241,0.889,-0.035,-6.531,16.052,4.944,74.702,15.133
0.271,1.228,-0.063,-19.043,22.095,10.01,76.176,13.572
0.251,0.893,-0.073,11.414,8.362,18.494,75.454,14.188
0.266,0.917,-0.14,21.851,9.583,13.916,74.709,14.624
0.276,1.059,-0.047,30.579,4.395,18.372,74.829,14.504
0.183,1.111,0.039,34.607,-0.977,23.437,75.901,13.746
0.122,1.119,0.066,40.283,-12.756,30.762,78.569,11.378
0.042,1.089,0.118,33.997,-21.729,36.316,81.587,8.094
0.039,0.999,0.183,42.236,-38.086,47.302,82.6,5.093
-0.014,0.964,0.269,80.322,-58.35,49.927,80.954,2.578
-0.225,0.856,0.233,95.581,-69.702,47.852,78.17,-2.251
-0.359,0.659,0.339,92.712,-64.331,41.504,71.457,-8.749
-0.439,0.582,0.458,75.012,-59.326,30.762,61.495,-17.307
-0.562,0.582,0.465,63.721,-61.096,28.687,50.886,-27.311
-0.659,0.49,0.498,65.369,-62.073,28.625,40.817,-34.78
-0.734,0.414,0.526,62.378,-61.279,26.306,33.833,-40.118
-0.845,0.287,0.513,69.336,-62.134,24.475,27.25,-46.315
-0.975,0.231,0.41,56.458,-66.406,27.832,20.731,-53.118
-1.021,0.024,0.361,36.194,-51.453,27.893,13.411,-60.218
-0.953,-0.008,0.268,18.127,-41.565,12.268,7.418,-66.619
-0.935,0.007,0.124,-3.052,-40.71,-2.014,3.582,-72.978
-0.894,0.206,0.001,-10.315,-41.382,-10.376,3.376,-78.301
-0.881,0.208,-0.002,-6.287,-37.231,-1.709,6.404,-81.172
-0.931,0.067,-0.012,9.949,-39.551,8.911,7.642,-82.162
-1.119,0,-0.136,12.329,-44.067,15.32,7.173,-82.491
-0.985,0.089,-0.233,-17.639,-46.021,2.136,5.289,-82.316
-0.878,0.125,-0.177,1.038,-19.226,9.583,4.071,-80.928
-0.942,-0.071,-0.217,15.747,3.418,5.859,2.045,-78.81
-1.013,0.02,-0.179,7.202,0.61,-0.732,2.39,-77.843
-1.047,0.067,-0.17,1.709,-0.122,0.61,2.051,-78.969
-1.017,0.054,-0.133,6.348,4.7,2.502,0.982,-80.086
-0.991,0.046,-0.156,2.441,6.042,1.099,2.605,-80.72
-0.998,0.036,-0.178,0.366,2.319,1.099,2.845,-80.633
-0.993,0.021,-0.15,0.977,1.343,-0.977,2.224,-80.957
-0.997,0.066,-0.149,1.16,6.042,-2.563,2.41,-80.652
-0.93,0.073,-0.201,-9.216,5.127,-0.793,2.819,-79.788
-0.892,0.024,-0.202,-5.371,6.165,8.85,2.712,-79.225
-0.828,0.128,-0.18,-0.427,21.057,12.146,4.466,-77.811
-0.906,-0.01,-0.133,4.7,35.034,0.916,3.389,-78.121
-0.919,-0.103,-0.028,6.714,40.894,-15.808,0.632,-81.271
-0.967,-0.046,0.039,9.338,51.147,-19.775,-0.476,-85.214
-0.956,0.021,0.179,-11.353,52.246,-19.287,-2.091,-87.731
-0.942,0.117,0.309,-31.433,47.791,-23.193,-0.156,-82.469
-0.925,0.203,0.396,-36.072,41.016,-22.888,4.326,-75.64
-0.844,0.372,0.33,-47.729,36.255,-26.855,10.449,-68.991
-0.805,0.463,0.334,-59.937,41.992,-29.175,17.015,-62.998
-0.711,0.531,0.385,-67.688,48.462,-32.776,23.609,-57.005
-0.714,0.519,0.278,-71.838,47.729,-39.551,29.377,-53.132
-0.684,0.559,0.276,-56.763,58.105,-51.575,33.092,-50.152
-0.537,0.702,0.347,-54.81,72.937,-59.448,38.159,-45.005
-0.352,0.939,0.348,-47.852,74.585,-58.105,46.223,-37.38
-0.255,0.901,0.391,-26.917,70.068,-55.664,53.688,-28.346
-0.15,0.932,0.394,-16.479,59.082,-58.777,60.499,-18.902
-0.01,1.021,0.407,-13.977,59.448,-54.504,65.606,-10.602
0.104,1.063,0.429,-19.653,48.157,-55.42,67.152,-4.191
0.243,0.977,0.265,-21.484,36.072,-34.973,69.321,2.52
0.27,0.944,0.227,-15.259,20.203,-20.447,69.967,8.187
0.32,0.886,0.187,-26.978,9.521,-9.216,69.448,13.097
0.351,0.882,0.152,-8.057,8.545,-14.587,68.597,17.376
0.325,0.946,0.143,-14.587,5.615,-14.771,68.38,18.753
0.25,1.082,0.131,-1.343,-3.479,0.671,69.913,17.947
0.266,0.894,0.18,-5.005,-2.991,-3.54,70.637,17.191
0.28,0.938,0.057,22.766,5.005,-0.732,72.306,16.057
0.314,0.913,0.151,12.207,4.639,2.075,72.254,16.03
0.337,0.9,0.204,-4.639,-2.502,0.793,69.89,17.958
0.254,1.325,0.176,-20.752,3.296,-13,72.026,16.054
0.288,0.952,0.087,-4.7,9.033,4.639,71.809,16.101
0.319,0.836,0.04,-21.423,-12.756,4.822,72.032,16.507
0.27,0.977,0.085,-31.433,-8.972,0.793,73.696,15.402
aX,aY,aZ,gX,gY,gZ,Roll,Pitch
0.287,1.195,0.021,9.155,-2.93,-1.038,73.313,16.352
0.233,1.031,0.068,-14.587,7.324,-3.174,74.391,15.318
0.211,0.965,0.01,-10.132,11.841,-1.404,76.289,13.481
0.38,0.857,0.245,0.122,-1.221,8.179,73.978,15.284
0.45,1.076,0.05,5.981,8.972,18.25,71.336,17.887
0.308,1.109,0.087,19.836,13.184,47.791,70.676,18.527
0.188,1.045,0.085,18.616,0.916,58.105,71.008,17.876
0.089,1.011,0.162,21.667,-14.404,61.768,75.398,13.674
0.063,0.925,0.189,58.899,-32.654,55.847,78.482,8.94
-0.079,0.973,0.297,55.298,-51.88,44.8,78.866,3.722
-0.189,0.853,0.409,59.021,-56.458,39.246,74.213,-1.705
-0.323,0.828,0.296,70.679,-73.914,43.213,69.998,-7.984
-0.47,0.738,0.32,81.909,-77.759,44.434,63.438,-16.267
-0.556,0.69,0.431,89.478,-65.735,41.931,55.732,-24.14
-0.718,0.552,0.417,79.346,-55.481,36.377,47.95,-33.139
-0.751,0.333,0.493,83.374,-55.542,35.706,37.662,-41.222
-0.794,0.25,0.501,77.271,-52.002,35.706,28.47,-47.389
-0.949,0.085,0.445,74.463,-48.889,33.752,18.213,-55.341
-1.017,0.002,0.398,63.477,-48.645,22.4,9.601,-60.889
-0.965,-0.052,0.33,39.795,-56.458,6.775,3.991,-65.494
-0.949,-0.046,0.211,9.705,-64.575,-9.399,-0.149,-70.371
-0.958,-0.009,0.046,-14.282,-54.504,-20.63,-1.497,-75.72
-0.886,0.123,-0.097,-3.174,-43.64,-18.86,0.245,-82.58
-0.909,0.097,-0.147,9.338,-26.306,-14.893,2.558,-87.435
-0.966,0.019,-0.131,6.104,-16.663,-14.282,3.532,-83.833
-0.998,0.056,-0.199,-2.441,-14.099,-7.812,4.447,-80.256
-0.912,0.091,-0.114,-20.02,-14.526,5.554,3.931,-80.309
-0.952,0.06,-0.193,-3.845,-3.845,6.592,3.342,-79.983
-0.976,0.019,-0.207,1.892,0.427,-0.488,3.317,-78.962
-1.009,0.044,-0.162,21.973,0.977,-2.197,3.14,-79.548
-1.007,0.044,-0.1,4.639,0.061,-2.014,2.393,-80.168
-0.999,0.192,-0.149,-15.991,0.183,3.357,4.235,-80.235
-0.976,-0.033,-0.164,-2.258,3.967,5.676,3.513,-81.087
-0.959,-0.009,-0.162,3.113,0.916,-2.869,2.791,-81.242
-0.934,-0.002,-0.132,-5.432,3.418,-4.822,2.175,-80.811
-0.97,-0.002,-0.167,-8.057,0.549,-2.136,-0.665,-80.72
-1.039,0.183,-0.156,-11.475,2.136,2.869,2.468,-80.68
-0.964,0.193,-0.176,-2.441,11.78,5.615,5.376,-79.379
-0.989,0.182,-0.169,3.662,29.419,0.549,7.89,-77.622
-0.954,0.053,-0.029,14.16,45.41,5.127,8.727,-78.418
-0.982,0.027,0.061,10.315,43.457,-0.061,6.657,-81.909
-0.946,0.109,0.114,0.854,44.312,-2.563,5.483,-84.506
-0.913,0.077,0.156,-17.822,49.133,-8.484,4,-83.95
-0.86,0.031,0.108,-19.897,48.279,-19.653,3.749,-82.282
-0.885,0.079,0.216,-29.358,43.701,-30.273,4.641,-79.565
-0.874,0.219,0.314,-54.199,42.419,-41.687,6.396,-75.832
-0.895,0.368,0.409,-62.622,43.945,-48.706,10.756,-70.303
-0.824,0.614,0.511,-75.867,48.401,-54.26,18.764,-60.91
-0.641,0.734,0.436,-72.449,54.443,-48.889,27.996,-51.674
-0.577,0.728,0.346,-51.636,64.087,-52.979,35.752,-44.598
-0.422,0.718,0.278,-45.532,73.792,-59.021,43.711,-37.553
-0.3,0.878,0.272,-46.692,80.811,-65.735,52.409,-30.187
-0.098,1.013,0.372,-29.724,80.444,-62.195,60.504,-21.377
0.045,1.08,0.355,-24.841,71.533,-53.65,67.947,-11.233
0.157,1.068,0.328,-15.198,51.636,-42.847,71.62,-2.642
0.253,0.962,0.264,-9.888,36.987,-42.175,71.669,4.705
0.298,0.962,0.219,-2.319,25.513,-37.17,71.181,10.077
0.341,0.929,0.164,0.916,15.869,-20.508,69.939,14.557
0.397,0.915,0.131,-37.476,7.263,-13.55,68.225,18.52
0.391,0.94,0.338,19.714,4.639,4.211,66.082,20.369
0.295,0.878,0.146,16.479,1.526,-3.296,66.102,20.816
0.317,0.934,0.144,-0.061,-1.587,2.563,66.53,20.494
0.294,0.962,0.148,-4.578,-1.953,0.305,67.85,18.879
0.293,0.904,0.159,-0.244,-2.258,-1.587,69.98,17.846
0.301,0.933,0.155,-4.578,-4.272,-1.709,70.131,17.675
0.302,1.059,0.189,-0.977,5.127,-0.244,70.628,16.91
0.254,0.978,0.11,-9.888,8.972,-5.188,71.412,16.333
0.268,0.881,0.106,-12.024,-14.16,-0.183,71.931,16.123
0.261,0.88,0.044,-20.325,-5.31,4.944,72.829,15.833
aX,aY,aZ,gX,gY,gZ,Roll,Pitch
0.133,0.838,-0.073,11.169,-2.014,-5.798,75.36,14.341
0.26,0.786,-0.093,9.583,17.456,-7.69,74.763,15.235
0.327,0.947,0.2,-1.282,6.592,1.404,74.096,15.852
0.297,0.985,0.094,9.46,7.996,13.245,73.92,15.951
0.417,1.158,0.137,-11.108,9.094,28.015,70.865,18.495
0.359,1.289,0.116,20.569,-3.418,47.852,71.056,17.599
0.232,1.174,0.183,23.376,-16.479,59.57,72.998,15.719
0.128,1.05,0.178,44.434,-41.077,66.895,74.548,13.554
-0.033,0.944,0.227,84.717,-69.824,66.833,77.567,8.636
-0.237,0.757,0.286,101.99,-82.886,65.979,77.383,1.28
-0.463,0.537,0.401,102.356,-75.195,48.401,69.205,-9.897
-0.613,0.498,0.294,110.596,-67.444,35.339,56.537,-24.221
-0.697,0.457,0.45,94.604,-58.777,30.029,42.359,-37.005
-0.805,0.256,0.562,78.613,-50.476,22.461,29.489,-46.532
-0.844,0.211,0.599,54.443,-52.307,17.944,22.017,-51.225
-0.896,0.087,0.491,44.922,-56.58,24.841,14.669,-54.276
-0.88,0.084,0.447,37.537,-55.786,24.292,9.027,-57.373
-0.908,0.012,0.33,20.63,-53.711,10.864,5.639,-61.607
-0.95,-0.068,0.196,9.338,-54.199,-7.935,1.683,-68.004
-0.974,0.09,0.009,-1.465,-45.715,-30.151,1.771,-75.088
-0.98,0.071,-0.147,16.357,-48.523,-30.212,1.591,-83.983
-0.913,0.208,-0.045,14.709,-41.931,-30.579,4.52,-85.476
-0.859,0.254,-0.068,16.541,-30.579,-23.437,9.483,-79.773
-0.863,0.25,-0.133,1.648,-24.475,-12.085,12.165,-76.374
-0.874,0.222,-0.088,6.042,-15.076,4.822,14.842,-74.224
-0.935,0.151,-0.115,3.54,-3.601,14.343,13.864,-74.715
-0.966,0.206,-0.098,7.446,2.686,15.259,12.744,-75.591
-1.027,0.199,-0.209,8.362,-2.38,-0.061,11.451,-76.271
-0.995,0.175,-0.153,1.343,1.465,1.099,10.436,-76.678
-1.027,0.157,-0.217,3.357,2.93,6.165,10.249,-76.017
-0.99,0.168,-0.157,2.625,1.648,1.343,9.652,-75.904
-0.952,0.204,-0.109,-3.906,4.517,-1.709,9.944,-76.545
-0.888,0.13,-0.119,-1.892,4.639,1.526,9.583,-76.968
-0.915,0.131,-0.085,-12.268,5.005,9.033,9.533,-78.098
-0.99,0.046,-0.123,-9.521,3.052,7.08,7.726,-79.822
-0.96,0.052,-0.1,-1.16,6.714,9.399,5.439,-81.54
-1.073,0.077,-0.068,21.118,14.099,13.855,4.429,-82.978
-0.998,0.066,-0.068,30.212,23.376,8.85,3.42,-83.862
-1,0.166,-0.037,27.893,27.1,7.568,5.115,-83.583
-0.946,0.122,-0.001,15.503,31.433,10.681,6.124,-83.389
-0.941,0.021,0.037,-1.953,31.616,9.094,5.515,-84.39
-0.974,-0.009,0.047,-17.334,38.269,-2.258,4.445,-85.505
-0.946,0.075,0.075,-34.241,44.189,-15.686,3.134,-86.075
-0.845,0.197,0.187,-40.039,53.772,-25.818,4.357,-83.124
-0.824,0.254,0.275,-66.284,59.875,-31.921,8.087,-77.745
-0.845,0.336,0.375,-68.481,64.575,-37.537,13.529,-70.08
-0.73,0.506,0.428,-84.595,66.589,-46.814,20.364,-60.863
-0.561,0.696,0.382,-90.576,68.359,-56.519,28.481,-52.028
-0.402,0.833,0.289,-88.928,77.087,-68.359,38.917,-42.291
-0.223,0.95,0.409,-58.777,84.473,-76.782,50.748,-29.823
-0.049,1.042,0.366,-34.546,77.515,-69.397,61.621,-17.987
0.058,1.03,0.406,-18.127,66.04,-62.378,67.542,-8.5
0.152,0.961,0.313,-2.441,55.725,-61.584,69.431,-0.842
0.167,1.055,0.259,-4.883,46.387,-46.448,71.309,4.355
0.3,0.988,0.321,8.789,32.104,-36.255,70.046,9.073
0.311,0.842,0.179,-18.127,15.381,-32.471,69.736,13.122
0.419,1.105,0.299,13.55,1.648,-12.939,68.169,16.185
0.353,0.891,0.226,-2.686,-3.54,2.502,65.77,19.256
0.332,0.863,0.154,3.113,6.287,0.916,65.919,20.426
0.342,0.899,0.224,15.869,10.315,4.944,65.622,20.496
0.348,0.86,0.273,4.883,4.456,1.282,65.121,20.776
0.414,1.279,0.284,-22.888,3.174,2.625,66.3,19.683
0.281,0.924,0.246,-19.043,-10.132,-2.38,66.491,18.687
0.307,0.859,0.175,-35.217,-6.653,5.188,66.972,18.467
aX,aY,aZ,gX,gY,gZ,Roll,Pitch
0.281,0.683,-0.039,30.457,-3.601,23.01,68.89,18.637
0.191,0.844,0.058,-18.188,1.099,11.719,70.87,17.613
0.402,1.148,0.079,10.925,11.841,1.099,71.062,18.429
0.466,1.145,0.307,2.014,5.432,23.193,69.861,19.237
0.559,1.163,0.128,16.296,-3.418,36.377,68.224,20.468
0.3,1.069,0.13,50.415,-13.123,55.786,67.826,20.708
0.122,1.007,0.148,53.04,-23.56,63.232,69.792,18.049
-0.047,0.779,0.224,91.614,-49.255,62.012,74.338,12.932
-0.223,0.781,0.412,72.205,-77.393,52.673,75.703,2.321
-0.266,0.79,0.466,80.078,-81.36,45.654,68.578,-6.582
-0.439,0.715,0.42,97.412,-71.35,41.809,59.472,-15.888
-0.564,0.516,0.422,85.876,-58.472,40.283,50.906,-24.392
-0.707,0.375,0.393,79.529,-53.345,34.363,42.583,-33.914
-0.735,0.253,0.529,70.984,-50.293,26.428,31.66,-43.656
-0.796,0.211,0.619,55.42,-51.208,18.433,21.597,-49.595
-0.891,0.145,0.557,55.603,-55.786,14.587,14.627,-53.484
-0.957,-0.026,0.413,49.5,-57.312,10.437,8.303,-56.979
-0.946,0.028,0.344,27.588,-54.199,-4.639,5.007,-61.297
-0.951,0.041,0.25,15.564,-52.185,-17.334,2.642,-67.195
-0.971,0.086,0.059,9.583,-49.377,-20.264,1.856,-74.314
-0.883,0.172,0.08,-2.136,-48.584,-10.193,4.898,-77.917
-0.966,0.039,0.038,19.348,-52.856,-0.793,5.094,-81.773
-0.89,0.126,-0.026,-11.108,-38.147,1.526,6.517,-83.078
-0.864,-0.069,-0.241,15.015,-25.513,-4.639,4.268,-85.122
-0.964,0.108,-0.155,12.817,-10.803,-12.085,3.166,-83.268
-0.984,0.133,-0.197,0.61,1.831,-5.005,4.562,-79.472
-0.975,0.098,-0.185,2.563,-0.549,6.775,4.007,-77.72
-1.021,0.151,-0.19,-0.183,0.671,1.343,6.967,-77.461
-1.046,0.232,-0.17,5.676,3.235,1.099,8.523,-76.546
-0.969,0.194,-0.133,0.977,4.333,2.319,9.408,-76.591
-0.997,0.096,-0.108,-0.671,5.554,5.066,9.367,-77.395
-0.989,0.097,-0.109,-2.625,4.578,4.822,8.72,-78.583
-0.932,0.124,-0.15,-3.174,4.578,4.639,7.431,-79.579
-0.798,0.122,-0.167,-6.104,12.207,10.315,6.678,-79.466
-0.869,0.069,-0.079,-19.775,14.771,6.348,6.489,-79.711
-0.898,0.106,-0.212,-19.714,18.188,-5.249,6.77,-78.06
-0.945,-0.003,-0.181,-0.427,25.208,-5.737,4.718,-78.675
-0.976,-0.014,-0.107,18.311,37.109,-5.676,2.428,-80.762
-0.948,0.083,0.036,21.973,54.81,-1.77,2.606,-82.523
-0.968,0.038,0.061,6.897,61.218,1.404,1.563,-86.759
-0.916,0.055,0.226,-15.808,59.753,-6.348,2.448,-85.924
-0.875,0.119,0.36,-53.589,50.171,-14.465,4.492,-78.635
-0.799,0.273,0.347,-76.294,45.959,-23.01,7.488,-72.722
-0.849,0.353,0.408,-65.796,54.26,-31.494,12.238,-65.577
-0.755,0.466,0.434,-77.698,67.017,-40.1,18.483,-59.037
-0.626,0.599,0.442,-89.783,72.51,-47.302,26.182,-52.194
-0.476,0.743,0.421,-94.91,72.937,-51.025,34.056,-44.497
-0.351,0.879,0.364,-88.379,74.585,-59.937,44.21,-34.936
-0.172,0.97,0.323,-78.491,74.402,-71.777,54.866,-24.609
-0.019,1.084,0.313,-45.166,64.026,-70.801,64.57,-14.485
0.082,1.003,0.22,-0.183,53.04,-60.181,71.673,-6.369
0.132,1.064,0.204,5.981,39.001,-55.847,75.573,0.312
0.279,0.909,0.287,-11.047,31.799,-48.157,74.463,6.472
0.415,0.923,0.185,5.31,21.179,-25.94,71.877,12.795
0.39,1.06,0.185,4.456,7.141,-13.794,69.368,16.717
0.353,0.913,0.171,-2.014,-1.038,0.366,66.46,20.248
0.327,0.943,0.103,-10.864,-0.854,-0.549,67.147,20.872
0.304,0.963,0.107,-8.484,2.808,-0.305,69.039,19.315
0.323,0.748,0.121,24.17,3.113,-3.418,68.558,19.952
0.277,0.892,0.084,18.25,3.601,1.404,69.865,19.036
0.322,0.931,0.165,21.423,8.118,0.977,69.576,18.977
0.325,0.906,0.18,4.822,2.991,0,68.593,19.506
0.321,0.848,-0.009,27.222,-4.883,-8.118,69.841,19.056
0.314,0.944,0.234,14.832,-1.587,-2.319,68.876,19.22
0.323,1.055,0.231,1.038,5.432,-0.305,69.12,18.615
0.321,0.933,0.138,-33.813,-12.146,0.916,69.54,18.482
0.296,0.897,0.124,-51.697,-13.611,3.662,69.255,17.843
aX,aY,aZ,gX,gY,gZ,Roll,Pitch
0.32,1.104,0.217,-26.672,1.648,-2.869,70.066,17.282
0.286,0.942,0.08,9.277,7.751,-1.343,70.869,17.344
0.329,0.989,0.049,-5.92,3.967,4.944,71.485,17.259
0.37,1.04,0.126,-20.996,1.343,24.78,71.213,17.632
0.45,1.294,0.204,9.155,-11.108,53.345,70.559,18.483
0.312,1.231,0.116,52.429,-16.541,65.186,71.295,17.682
0.199,1.102,0.16,50.476,-30.151,68.97,72.602,15.788
-0.01,0.965,0.137,80.994,-55.481,69.275,76.123,11.601
-0.245,0.857,0.259,85.022,-66.162,65.369,80.164,3.484
-0.372,0.679,0.422,91.248,-65.063,54.26,73.489,-6.53
-0.508,0.634,0.353,85.205,-62.805,41.504,62.521,-18.722
-0.63,0.491,0.322,85.693,-58.716,44.312,50.197,-30.435
-0.717,0.374,0.444,86.609,-59.387,46.448,38.813,-39.843
-0.771,0.176,0.547,73.242,-60.73,43.518,28.298,-48.022
-0.9,0.085,0.481,72.51,-64.087,35.339,17.771,-54.932
-0.969,-0.003,0.367,60.486,-57.373,23.621,9.37,-59.902
-0.992,-0.109,0.319,39.673,-49.561,5.432,2.117,-64.651
-1.026,-0.138,0.161,32.349,-48.706,-6.592,-2.308,-71
-0.966,-0.025,0.157,2.014,-51.086,-11.475,-3.872,-75.246
-0.976,-0.109,-0.079,-11.841,-58.411,-7.568,-5.457,-80.306
-0.938,-0.097,-0.299,8.484,-60.669,-13.367,-5.404,-84.526
-0.823,0.039,-0.221,12.512,-39.429,-20.874,-2.95,-82.584
-0.896,-0.028,-0.195,35.522,-20.569,-21.118,-2.995,-77.312
-0.9,0.074,-0.134,-7.69,-6.714,-6.348,-0.182,-76.56
-0.988,0.1,-0.142,-0.183,0.244,8.545,2.888,-78.756
-1.009,0.052,-0.221,18.372,7.019,5.981,2.951,-79.25
-0.995,0.053,-0.185,13.489,4.761,0.977,4.046,-79.277
-0.993,0.031,-0.13,9.399,8.545,2.869,3.354,-79.781
-0.984,0.055,-0.132,4.883,3.54,6.226,2.714,-80.088
-0.973,0.046,-0.08,-4.883,1.587,2.441,2.656,-81.928
-0.94,0.008,-0.136,1.953,3.906,1.099,2.046,-82.693
-0.864,0.154,-0.103,17.822,9.705,12.268,3.977,-82.086
-0.912,0.081,-0.126,-3.418,12.268,8.606,4.45,-81.81
-0.819,0.114,-0.234,2.319,23.56,1.77,5.687,-78.835
-0.891,0.007,-0.205,22.522,43.701,-6.409,5.718,-77.75
-1.018,-0.089,0.092,2.747,61.768,-28.503,1.744,-82.392
-0.986,0.042,0.169,-21.729,66.589,-42.603,1.127,-87.038
-0.946,0.114,0.145,-30.396,59.326,-40.894,1.1,-86.796
-0.927,0.274,0.202,-43.274,54.626,-35.4,4.963,-79.794
-0.835,0.381,0.275,-50.476,60.669,-38.33,12.123,-72.932
-0.787,0.515,0.412,-64.88,67.932,-38.452,19.407,-64.743
-0.678,0.633,0.463,-82.52,75.5,-35.767,27.261,-55.078
-0.534,0.694,0.354,-88.074,82.947,-44.067,34.716,-46.568
-0.335,0.768,0.348,-73.975,85.388,-62.317,42.817,-37.444
-0.093,0.968,0.372,-48.035,86.975,-81.055,53.728,-25.586
0.061,1.087,0.353,-43.945,85.938,-76.599,64.362,-13.363
0.124,1.102,0.308,0.366,67.688,-59.021,70.34,-3.344
0.248,1.031,0.27,14.771,51.392,-48.645,72.165,4.435
0.276,0.927,0.274,5.249,39.612,-40.771,71.359,9.326
0.372,0.921,0.207,20.081,24.17,-38.757,69.722,13.908
0.511,1.059,0.323,16.785,6.47,-14.282,65.794,19.019
0.392,0.78,0.274,2.93,-0.122,-4.578,62.874,21.983
0.442,0.827,0.227,4.822,3.418,-2.747,60.825,24.699
0.392,0.82,0.25,-13.855,-2.075,3.54,59.638,25.458
0.397,0.666,0.266,-26.55,-7.812,-2.563,58.237,26.492
0.35,0.991,0.109,-18.555,-9.46,2.258,61.471,24.863
0.339,0.93,0.06,1.892,1.953,5.92,64.442,23.042
0.365,0.895,0.154,4.517,5.615,5.31,65.774,22.345
0.36,0.829,0.232,3.235,3.296,1.709,67.368,20.985
0.407,0.926,-0.021,18.433,-14.221,-7.568,66.837,22.2
0.347,0.851,0.097,-10.254,2.258,2.258,66.117,22.733
0.403,0.87,0.15,-27.527,-3.54,3.967,65.493,23.397
0.336,0.894,0.101,-22.095,-9.399,3.479,66.651,22.78
aX,aY,aZ,gX,gY,gZ,Roll,Pitch
0.181,0.823,0.017,3.174,6.836,-2.686,69.022,20.122
0.265,1.078,0.02,-17.212,17.029,8.118,71.603,17.858
0.344,0.68,0.109,-3.296,1.465,3.54,71.657,17.902
0.327,1.146,0.045,2.93,10.254,4.517,73.103,16.647
0.523,1.279,0.258,7.507,21.79,41.504,70.022,19.123
0.339,1.12,0.163,46.082,12.817,54.321,68.835,19.759
0.187,1.003,0.294,31.433,-8.545,54.871,70.946,16.604
-0.014,0.86,0.209,23.682,-38.574,48.767,71.978,13.345
-0.078,0.88,0.229,47.424,-57.434,54.749,75.576,6.234
-0.156,0.761,0.311,86.975,-62.439,59.753,73.401,-0.956
-0.339,0.711,0.301,102.844,-63.782,59.937,69.466,-9.857
-0.45,0.638,0.339,88.501,-60.181,59.57,62.409,-17.663
-0.586,0.5,0.434,77.087,-56.396,49.744,51.647,-27.39
-0.68,0.416,0.453,77.759,-52.917,35.4,41.496,-36.957
-0.778,0.307,0.445,77.759,-52.307,33.386,31.801,-44.912
-0.849,0.2,0.49,72.51,-59.143,33.325,22.603,-51.358
-1.009,0.152,0.435,60.608,-63.477,30.762,15.863,-57.454
-1.048,-0.068,0.385,37.292,-59.937,22.034,8.238,-63.309
-0.983,-0.147,0.245,25.574,-56.396,5.249,1.863,-68.131
-0.917,0.016,0.085,15.503,-51.331,-7.385,-0.655,-73.786
-0.904,0.049,-0.008,10.986,-51.208,-4.089,-2.198,-79.365
-0.919,0.02,0.027,12.512,-46.875,3.479,-0.952,-84.555
-1.051,-0.148,-0.062,6.47,-47.852,1.587,-0.955,-88.845
-0.959,-0.005,-0.174,-10.559,-33.386,-22.217,-1.26,-86.537
-0.837,-0.026,-0.285,-12.024,-16.663,-10.376,-2.403,-82.168
-0.931,0.057,-0.422,18.982,-5.676,5.005,-1.797,-75.889
-0.921,0.074,-0.24,11.841,-1.953,6.47,1.501,-72.875
-1.032,-0.017,-0.256,8.789,0.854,0.671,1.289,-72.059
-0.997,-0.004,-0.151,4.639,0.732,-1.709,1.573,-74.534
-1.006,0.028,-0.19,6.592,1.709,0.488,1.15,-77.999
-1.001,0.05,-0.12,-1.892,2.075,4.7,0.8,-79.89
-0.988,0.031,-0.157,-3.601,1.77,0.122,1.499,-81.067
-1.011,0.012,-0.205,4.7,1.648,-0.549,1.71,-80.322
-0.956,0.036,-0.202,6.348,4.517,-0.061,1.843,-80.025
-0.911,0.036,-0.225,-3.418,5.005,2.747,1.666,-78.343
-0.831,-0.03,-0.294,-8.789,9.827,10.193,0.792,-75.96
-0.804,-0.312,-0.321,-9.277,13.367,-0.305,-4.24,-72.914
-0.89,-0.163,-0.292,34.363,23.132,-5.615,-7.398,-70.373
-0.981,0.052,-0.177,33.081,44.373,-4.639,-7.038,-71.492
-0.963,0.076,0.016,1.953,58.594,-3.235,-5.327,-76.888
-0.978,-0.058,0.061,-7.812,62.439,-7.263,-1.388,-83.969
-1.017,-0.083,0.026,-31.25,66.04,-19.348,-0.19,-88.904
-0.934,0,0.147,-42.969,68.42,-31.982,-0.961,-86.218
-0.841,0.144,0.191,-40.405,61.096,-46.265,0.048,-83.585
-0.797,0.439,0.394,-58.044,63.416,-58.044,7.761,-75.817
-0.706,0.589,0.531,-72.327,68.42,-52.307,18.455,-62.282
-0.596,0.698,0.45,-75.256,70.862,-51.88,29.314,-50.319
-0.467,0.788,0.478,-77.209,81.177,-46.753,38.457,-39.405
-0.323,0.84,0.412,-66.711,84.045,-47.18,46.078,-31.136
-0.155,0.92,0.383,-51.025,85.938,-58.35,54.525,-22.763
-0.014,1.051,0.279,-38.269,77.942,-67.688,63.105,-13.771
0.104,1.137,0.253,-17.273,60.425,-64.148,70.693,-5.343
0.333,0.833,0.326,11.23,39.612,-57.007,72.145,3.701
0.505,0.814,0.255,12.146,29.541,-42.908,69.309,13.082
0.428,1.039,0.229,2.991,18.372,-42.664,65.607,19.043
0.37,0.776,0.283,-11.963,-0.916,2.197,60.381,24.267
0.384,0.884,0.225,-17.151,-2.686,3.235,60.865,24.816
0.336,0.925,0.086,-46.692,5.676,11.841,64.505,22.232
0.322,0.8,0.186,-10.864,-11.597,2.136,64.491,22.143
0.308,1.031,0.137,5.127,-2.38,2.808,67.7,20.084
0.316,0.907,0.114,11.475,6.287,4.089,69.289,19.108
0.331,0.909,0.174,2.38,4.639,0.977,68.791,19.04
0.356,0.848,0.211,10.986,-2.136,-10.498,68.493,19.258
0.318,0.854,0.092,-5.432,-3.174,-2.197,67.655,20.306
0.323,0.873,0.135,-30.884,-12.451,0.671,67.237,20.578
aX,aY,aZ,gX,gY,gZ,Roll,Pitch
0.21,0.985,0.172,-12.207,9.827,-0.916,69.195,18.489
0.257,0.984,0.078,-5.859,7.202,0.366,71.91,16.575
0.292,0.965,0.014,4.517,15.808,-3.174,73.133,15.802
0.347,0.902,0.101,-5.066,13,4.028,73.096,16.03
0.413,1.004,0.041,14.587,-0.244,15.808,70.961,18.732
0.419,1.132,0.043,17.822,-7.019,28.625,69.652,20.157
0.268,1.129,0.133,35.461,-7.324,52.979,70.426,19.098
0.187,1.02,0.232,32.532,-16.724,69.275,72.354,16.63
0.074,1.099,0.21,40.161,-31.738,79.041,75.504,12.101
-0.088,0.991,0.159,70.007,-46.753,80.75,78.564,5.857
-0.235,0.965,0.252,85.083,-48.95,77.148,78.138,-0.848
-0.381,0.783,0.261,75.928,-36.499,62.744,74.234,-9.081
-0.48,0.446,0.334,102.051,-33.02,41.199,63.991,-19.519
-0.566,0.368,0.406,92.712,-26.855,24.109,50.91,-30.223
-0.645,0.294,0.479,75.745,-32.41,19.653,36.6,-40.785
-0.708,0.219,0.575,69.092,-44.922,14.526,23.894,-47.071
-0.834,0.107,0.611,77.759,-59.265,12.207,16.01,-50.19
-0.93,0.052,0.58,71.533,-67.871,2.869,9.928,-53.067
-1.032,0.032,0.5,50.598,-61.829,2.563,5.61,-56.689
-0.99,-0.111,0.316,48.95,-64.148,5.92,1.064,-62.052
-1.018,-0.133,0.182,18.433,-67.993,-3.113,-2.148,-68.223
-0.945,-0.001,0.026,-0.061,-59.875,-19.348,-2.96,-75.303
-0.847,0.002,-0.141,9.583,-60.242,-23.01,-3.631,-83.205
-0.901,0.128,-0.06,12.695,-48.95,-10.986,-0.051,-89.888
-0.956,0.184,-0.149,15.564,-36.743,2.93,4.888,-82.959
-0.89,-0.021,-0.236,1.465,-19.775,-2.38,4.604,-79.676
-0.854,0.038,-0.224,21.484,-10.193,-4.15,5.13,-78.309
-0.903,0.048,-0.206,5.676,-0.061,4.395,3.858,-76.708
-1.006,0.065,-0.178,2.869,2.991,7.141,1.988,-76.854
-0.986,0.074,-0.201,0,5.188,3.723,3.361,-77.375
-1.028,0.031,-0.237,4.333,4.456,0.977,3.119,-77.773
-1.003,0.041,-0.181,-2.258,2.563,1.282,2.942,-78.417
-0.97,0.039,-0.194,-6.104,0.671,5.127,2.599,-78.189
-0.969,0.048,-0.148,-5.737,5.005,6.775,2.247,-78.937
-0.878,0.052,-0.166,-2.869,8.545,11.414,2.645,-79.442
-0.804,0.133,-0.166,-19.043,15.381,12.573,4.219,-78.66
-0.862,0.191,-0.158,-11.23,27.039,2.319,6.766,-77.702
-0.924,-0.069,-0.229,16.663,36.804,-2.563,4.948,-77.299
-1.002,-0.087,-0.055,38.208,48.767,-7.507,2.646,-80.044
-0.989,0.003,0.132,-0.061,63.477,-18.616,0.578,-85.266
-0.963,0.018,0.111,-14.282,65.552,-25.574,-1.99,-87.919
-0.873,0.105,0.281,-39.612,66.895,-32.349,0.579,-82.983
-0.815,0.192,0.413,-60.181,68.176,-37.964,4.82,-74.801
-0.814,0.338,0.373,-86.792,64.697,-44.678,10.099,-68.768
-0.753,0.397,0.335,-76.538,71.533,-43.091,16.218,-61.868
-0.595,0.555,0.363,-91.919,79.773,-47.18,23.997,-54.843
-0.471,0.846,0.408,-97.839,87.158,-59.448,35.265,-45.385
-0.272,0.975,0.458,-82.336,92.102,-70.374,46.716,-33.3
-0.106,1.019,0.357,-55.237,93.262,-66.956,57.72,-21.079
-0.036,1.037,0.317,-12.695,81.177,-61.829,65.398,-11.985
0.16,1.008,0.306,-9.033,66.528,-58.777,70.133,-3.399
0.271,1.093,0.175,-0.916,48.157,-52.185,74.028,3.823
0.391,0.956,0.311,-1.526,33.569,-34.912,71.632,10.499
0.391,0.738,0.118,11.353,15.869,-29.419,68.21,17.27
0.45,0.919,0.279,18.799,3.174,-1.465,64.804,21.534
0.346,0.851,0.253,3.723,3.418,2.991,61.917,23.709
0.354,0.716,0.053,-10.559,15.381,4.333,62.283,25.031
0.414,0.829,0.23,39.49,-12.634,-5.005,61.993,24.606
0.256,1.003,0.2,-18.738,-4.15,5.676,65.41,21.502
0.332,0.897,0.163,16.602,5.371,2.258,66.447,21.145
0.346,0.879,0.186,16.235,6.592,-0.061,66.658,20.068
0.331,0.879,0.214,9.949,3.418,-2.197,68.014,18.707
0.333,1.15,0.204,-0.183,3.235,-7.812,67.909,19.065
0.347,0.908,0.21,17.273,-3.845,-6.165,67.496,19.168
0.241,0.902,0.195,-21.423,-1.526,18.921,68.711,17.667
0.319,0.937,0.203,-24.292,-2.502,4.272,69.204,17.28
0.34,0.901,0.154,-14.954,-9.155,-2.625,68.183,18.49
aX,aY,aZ,gX,gY,gZ,Roll,Pitch
0.269,1.011,0.07,1.221,9.888,1.831,70.556,17.087
0.219,0.832,0.151,-19.226,9.033,-2.563,70.755,17.11
0.227,1.05,0.016,15.747,2.686,-1.648,73.466,15.47
0.323,0.884,0.178,2.93,5.249,-0.366,73.499,15.282
0.367,1.011,0.053,-12.878,1.038,15.442,72.313,16.657
0.405,1.008,0.087,-7.019,-0.793,37.598,70.954,18.442
0.333,1.053,0.088,47.119,-0.427,57.739,69.424,19.759
0.192,1.124,0.204,51.392,-13.794,63.538,71.955,17.094
0.055,1.218,0.282,48.523,-32.166,63.904,74.923,12.477
-0.076,1.086,0.216,28.076,-44.189,62.134,78.201,6.314
-0.178,0.985,0.224,55.969,-46.143,65.186,78.156,-0.099
-0.355,0.848,0.165,105.591,-52.49,66.04,75.82,-7.462
-0.445,0.729,0.357,114.014,-53.894,61.829,68.647,-15.609
-0.594,0.403,0.391,104.126,-52.429,52.551,56.811,-26.331
-0.671,0.251,0.415,106.079,-55.786,44.922,42.263,-38.49
-0.773,0.16,0.422,93.262,-56.396,35.034,27.645,-48.306
-0.968,0.066,0.367,81.421,-57.19,23.865,14.492,-58.78
-0.993,-0.036,0.386,54.81,-51.514,23.01,6.696,-64.141
-1.058,-0.193,0.307,43.152,-44.373,14.282,-0.04,-68.646
-1.02,-0.271,0.227,38.086,-43.396,5.92,-5.847,-71.401
-0.987,-0.15,0.208,18.127,-42.542,-7.202,-8.778,-72.2
-0.991,-0.056,0.069,3.601,-49.561,-10.254,-9.211,-75.443
-0.926,0.007,0.01,-17.822,-51.819,-14.771,-6.775,-79.923
-0.955,-0.143,-0.066,2.502,-44.861,-16.174,-5.059,-83.963
-0.92,-0.19,-0.347,7.141,-44.861,-25.391,-5.723,-82.398
-0.844,0.033,-0.272,9.949,-23.254,-21.973,-4.507,-78.609
-0.903,0.063,-0.314,9.644,-8.85,-0.916,-3.604,-74.181
-0.941,0.034,-0.223,1.648,-0.122,20.874,-0.899,-72.208
-1.006,-0.144,-0.212,8.362,0.854,13.184,-0.201,-74.538
-1.033,-0.069,-0.297,5.493,1.831,-1.709,-1.652,-74.82
-0.998,0.069,-0.278,1.526,1.038,-3.174,-1.535,-75.665
-1.01,-0.025,-0.205,3.967,1.16,4.517,-2.319,-76.03
-0.985,-0.01,-0.171,0.122,-0.549,4.395,-0.489,-76.696
-0.989,0.003,-0.189,-0.854,1.953,-0.305,0.523,-78.038
-0.976,-0.008,-0.216,6.165,4.15,-1.892,-0.565,-78.837
-0.954,-0.016,-0.198,5.554,5.493,1.465,-0.455,-78.792
-0.844,-0.007,-0.225,-3.906,5.981,11.169,-0.419,-77.599
-0.858,-0.275,-0.2,22.888,16.296,13.733,-4.689,-76.207
-0.887,-0.038,-0.224,10.62,18.066,10.864,-5.261,-75.594
-0.954,-0.023,-0.153,19.348,29.297,15.991,-5.379,-76.181
-1.068,-0.229,0.019,21.301,38.269,5.676,-8.434,-78.098
-1.029,-0.173,-0.006,15.32,44.189,-7.568,-6.674,-81.489
-1.053,-0.092,-0.116,-0.549,50.232,-14.221,-7.163,-81.996
-0.95,-0.054,0.031,-12.695,59.387,-17.822,-7.616,-82.317
-0.938,-0.019,0.096,-44.128,57.617,-23.193,-4.86,-85.139
-0.888,0.083,0.196,-70.313,67.078,-37.659,-1.229,-86.681
-0.82,0.24,0.386,-92.59,77.698,-46.875,3.894,-78.211
-0.722,0.437,0.516,-98.145,79.956,-48.157,11.711,-67.363
-0.621,0.591,0.5,-105.835,79.773,-54.993,21.413,-55.564
-0.492,0.743,0.382,-104.736,83.069,-61.523,32.154,-44.653
-0.367,0.879,0.441,-97.351,92.346,-77.148,42.727,-34.324
-0.055,1.082,0.366,-73.425,90.82,-87.891,55.288,-22.526
0.137,1.14,0.303,-27.222,74.89,-69.031,66.358,-10.683
0.181,0.95,0.316,-1.526,49.255,-50.415,70.554,-1.404
0.298,0.97,0.288,4.089,38.33,-45.654,71.433,7.374
0.353,1.002,0.295,14.404,26.245,-37.476,69.19,12.88
0.392,0.929,0.248,5.493,16.296,-22.156,66.456,16.946
0.431,0.9,0.233,-4.517,13.55,-17.944,64.428,20.483
0.379,0.812,0.238,6.104,0.854,3.479,62.989,22.358
0.379,0.659,0.227,-25.269,-12.573,-2.686,60.806,24.744
0.347,0.897,0.119,-18.677,-21.667,2.441,61.961,24.524
0.285,0.938,0.043,1.16,2.747,4.028,65.23,22.459
0.345,0.92,0.127,19.47,12.512,4.761,66.972,21.448
0.333,0.881,0.169,7.69,7.141,3.662,69.117,19.664
0.252,0.775,0.098,-0.854,1.831,-1.648,69.832,18.927
0.329,0.885,0.168,0.793,-5.249,-2.563,68.29,19.734
0.334,0.83,0.099,-23.193,-9.094,-6.47,68.074,20.074
0.321,0.908,0.135,-30.64,-5.981,2.747,68.578,19.785
aX,aY,aZ,gX,gY,gZ,Roll,Pitch
0.218,1.035,0.127,-4.578,-1.709,1.709,70.251,18.014
0.274,0.867,0.054,-6.104,14.16,7.141,71.475,17.386
0.304,1.038,0.015,-0.305,5.066,-6.042,73.153,16.136
0.473,1.284,0.088,-8.545,4.761,17.151,72.88,16.697
0.505,1.059,0.071,20.813,2.625,46.692,69.678,20.098
0.273,1.206,0.188,39.368,-4.639,60.364,70.798,18.682
0.101,0.996,0.132,43.945,-20.691,83.13,72.481,16.48
0.028,0.882,0.203,68.909,-31.982,86.121,75.331,12.225
-0.132,0.811,0.257,99.609,-51.514,80.017,78.037,3.881
-0.282,0.765,0.325,124.207,-60.181,57.556,74.469,-4.571
-0.481,0.689,0.352,113.77,-64.331,36.987,65.563,-14.537
-0.576,0.616,0.403,103.088,-63.049,34.668,55.396,-24.864
-0.687,0.303,0.458,95.52,-63.293,33.325,43.008,-35.631
-0.782,0.149,0.461,79.102,-63.599,24.78,30.096,-46.151
-0.874,0.077,0.421,70.618,-64.697,20.02,18.607,-54.454
-0.992,-0.106,0.418,56.641,-60.547,20.813,6.396,-61.519
-0.954,-0.069,0.326,32.776,-64.453,8.972,0.74,-65.682
-1.016,-0.059,0.204,18.311,-64.209,-2.197,-2.2,-70.229
-1.019,-0.08,0.02,13.733,-69.092,-6.531,-4.386,-75.647
-0.965,-0.096,0.08,17.7,-62.439,-17.578,-4.337,-79.96
-0.933,0.168,-0.167,19.104,-46.021,-8.118,-0.976,-87.769
-0.945,0.065,-0.098,17.395,-22.827,4.822,0.839,-87.418
-0.931,-0.031,-0.264,2.014,-11.597,5.92,1.599,-83.029
-0.922,0.048,-0.322,-5.31,-10.62,-0.305,3.739,-76.624
-0.954,0.005,-0.284,3.662,1.953,4.333,1.299,-75.47
-0.975,-0.027,-0.201,0.671,4.028,0.061,-0.064,-74.182
-1.008,0.018,-0.138,-3.113,0.488,0.366,0.639,-76.219
-1.008,-0.027,-0.124,1.099,3.235,4.028,-0.442,-79.262
-1.032,-0.053,-0.181,2.93,2.014,2.93,-1.261,-80.82
-0.992,-0.034,-0.162,2.808,2.258,1.221,-1.35,-81.379
-0.945,-0.023,-0.196,3.235,4.15,-3.418,-1.945,-80.346
-0.893,-0.105,-0.168,7.263,10.071,-2.93,-3.137,-79.176
-0.919,-0.271,-0.234,16.846,6.836,-2.747,-6.461,-76.874
-0.911,0.16,-0.153,13.916,12.39,1.404,-3.654,-77.875
-0.885,0.145,-0.244,1.953,28.015,2.991,-1.103,-77.459
-0.976,-0.024,-0.238,33.997,43.823,-1.16,0.153,-76.75
-0.944,0.016,-0.036,4.333,53.589,-6.714,4.499,-78.827
-0.95,0.095,0.157,-18.677,58.655,-10.437,3.52,-83.487
-0.954,0.008,0.175,-24.658,59.265,-26.855,1.417,-88.334
-0.888,0.151,0.302,-55.481,64.819,-35.4,4.076,-80.035
-0.891,0.203,0.276,-60.547,68.97,-45.654,6.872,-74.533
-0.785,0.397,0.439,-71.045,74.768,-50.537,11.556,-68.105
-0.688,0.528,0.496,-76.721,72.144,-45.837,19.639,-58.626
-0.584,0.582,0.479,-68.542,73.364,-41.016,26.721,-50.792
-0.456,0.763,0.526,-59.204,70.618,-43.762,35.569,-40.078
-0.344,0.871,0.472,-58.899,70.923,-45.105,43.798,-31.513
-0.295,0.99,0.583,-47.18,65.43,-46.875,50.336,-23.783
-0.158,1.006,0.419,-41.87,65.674,-42.603,56.957,-16.83
-0.001,0.965,0.397,-29.907,57.007,-40.161,62.033,-10.613
0.086,0.985,0.378,-15.137,47.729,-39.185,65.303,-4.878
0.137,0.969,0.277,3.723,38.025,-37.781,69.447,0.868
0.248,0.98,0.224,-3.967,32.471,-32.532,70.779,6.531
0.313,0.959,0.275,-23.071,24.597,-26.123,70.285,10.936
0.389,0.931,0.304,-21.301,17.212,-23.376,68.237,15.253
0.374,0.916,0.246,-1.648,11.78,-18.982,65.962,18.619
0.338,0.942,0.156,20.691,-0.671,-1.953,65.351,20.041
0.33,0.876,0.184,-7.69,1.221,-1.099,65.317,20.768
0.322,0.906,0.068,-2.502,-3.052,-0.183,67.44,20.242
0.315,0.915,0.116,8.728,2.38,2.197,68.874,19.541
0.272,0.812,0.077,13.489,-1.221,1.77,69.436,19.305
0.349,0.913,0.157,4.089,1.404,-0.854,69.512,19.397
0.294,0.902,0.145,5.493,0.671,-1.953,69.484,18.974
0.333,0.927,0.14,1.282,-1.526,-1.038,69.179,19.159
0.337,0.866,0.13,1.526,-0.488,-4.517,68.354,19.765
0.292,0.915,0.215,-2.197,6.104,-3.479,68.734,18.916
0.338,0.926,0.145,-1.099,0.732,-0.183,68.325,19.409
0.328,0.9,0.116,2.625,1.587,-1.953,68.393,19.48
0.323,0.883,0.09,-3.54,-0.183,-1.526,68.878,19.248
0.328,0.893,0.115,-10.193,-5.92,-0.549,68.806,19.933
0.341,0.948,0.1,-8.85,-7.202,-1.526,69.087,19.885
aX,aY,aZ,gX,gY,gZ,Roll,Pitch