aX,aY,aZ,gX,gY,gZ,Roll,Pitch
0.011,0.406,0.911,-2.686,-4.333,0.183,23.988,0.645
0.026,0.144,0.838,26.062,17.029,-3.845,17.429,1.163
0.032,0.359,0.932,2.93,3.845,-0.183,18.708,1.405
-0.011,0.385,0.939,2.502,2.197,-0.488,19.66,0.868
-0.029,0.364,0.911,2.869,1.343,-0.305,19.083,0.265
-0.003,0.345,0.946,1.16,1.892,0.854,21.299,-0.163
0.014,0.319,0.934,2.319,-1.465,-0.549,20.75,-0.424
0.039,0.391,0.951,-7.507,-3.479,0.244,20.768,0.295
0.01,0.363,0.919,1.77,1.77,5.554,20.705,0.856
-0.007,0.381,0.941,4.089,4.7,2.38,21.214,0.804
0.019,0.352,0.955,11.23,7.202,-1.099,21.546,0.862
0.058,0.318,0.967,11.414,6.042,-7.568,20.494,1.134
0.071,0.251,0.967,1.465,1.709,-4.028,18.77,2.001
0.083,0.27,0.946,1.099,-4.028,-2.38,17.221,3.296
0.159,0.321,0.963,8.057,2.136,-0.366,16.711,5.294
0.104,0.296,0.964,1.465,1.404,1.892,16.413,5.955
0.092,0.269,0.957,-2.869,0,0.427,16.677,6.258
0.099,0.274,0.954,-0.366,-0.122,-0.183,16.692,6.468
0.076,0.254,0.962,2.197,0.61,1.465,15.825,5.315
0.084,0.282,0.966,0.061,0.183,0.854,15.624,5.036
0.082,0.282,0.959,0.305,0.305,0.549,15.799,4.889
0.083,0.29,0.962,0.488,0.061,0.671,16,4.646
0.085,0.26,0.959,1.953,0.671,0.671,16.089,4.784
0.098,0.257,0.954,-0.427,0.122,0.244,15.795,5.006
0.119,0.295,0.952,-2.075,0.366,0.427,15.998,5.528
0.163,0.328,0.932,-8.85,-3.662,2.38,16.604,6.697
0.101,0.319,0.958,-13,-5.249,7.324,17.403,6.892
0.074,0.343,0.957,-2.502,-4.333,10.01,18.565,6.497
-0.048,0.353,0.945,-8.85,-5.31,-2.014,19.443,4.126
0.029,0.374,0.921,8.24,1.16,-0.732,20.149,2.213
0.001,0.371,0.935,3.479,3.235,3.235,20.971,0.789
-0.003,0.348,0.923,0.549,-2.502,-3.174,21.207,-0.299
-0.026,0.38,0.948,-2.075,-1.526,-2.319,21.562,0.007
0.016,0.367,0.932,-3.54,-1.709,-1.221,21.414,-0.172
0.047,0.38,0.946,0.061,0.732,-2.319,21.477,0.478
-0.101,0.349,0.916,-6.47,-4.272,-4.395,21.526,-0.925
0.055,0.343,0.933,2.808,0.427,2.563,21.113,0.231
0.027,0.371,0.922,-2.808,-0.366,2.075,21.215,0.393
0.016,0.383,0.922,-5.188,-1.282,2.869,21.376,-0.051
0.015,0.362,0.918,5.798,0.854,2.014,21.539,1.63
0.006,0.379,0.92,0.732,-4.15,0.366,22.093,0.924
aX,aY,aZ,gX,gY,gZ,Roll,Pitch
0.048,0.502,0.912,-5.859,-6.165,2.625,23.87,1.207
-0.032,0.435,0.914,9.399,8.24,2.258,24.595,0.526
0.004,0.392,0.914,2.197,1.16,1.282,25.009,0.362
0,0.43,0.907,3.845,1.221,0.854,25.737,0.28
-0.074,0.424,0.933,5.981,0.549,0.183,24.608,-1.452
-0.048,0.337,0.926,4.761,0.793,2.075,23.265,-1.686
-0.027,0.357,0.943,-3.662,1.282,2.808,22.626,-2.117
0.023,0.386,0.93,3.235,2.38,3.235,21.93,-1.784
0.021,0.361,0.933,4.272,2.563,2.014,21.109,-0.432
0.031,0.38,0.934,-1.099,1.221,5.005,21.638,0.694
0.012,0.381,0.933,0.732,2.625,0.244,22.005,1.246
0.018,0.346,0.937,7.019,5.432,-2.38,21.448,1.183
0.017,0.338,0.953,0.977,3.113,-6.836,21.042,1.119
0.046,0.277,0.939,-3.418,-2.869,-4.211,19.641,1.343
0.091,0.36,0.932,-2.258,-8.179,1.709,19.349,2.478
0.119,0.367,0.921,9.338,2.136,4.7,19.678,3.923
0.031,0.392,0.937,-0.61,0.427,1.221,20.469,4.126
0.059,0.316,0.934,4.944,2.136,-2.136,21.004,4.294
0.039,0.349,0.951,1.465,0.671,-0.549,20.788,3.535
0.037,0.341,0.942,2.93,0.854,0.305,20.348,2.358
0.049,0.334,0.943,-1.465,-0.183,0.366,19.546,2.623
0.038,0.349,0.944,1.587,0.916,0.793,19.945,2.317
0.034,0.364,0.941,0.977,0.488,0.61,20.189,2.257
0.051,0.333,0.936,1.099,0.916,0.183,20.114,2.465
0.039,0.386,0.936,-6.104,0.549,-0.122,20.841,2.307
0.149,0.365,0.921,-6.042,-1.038,4.333,21.139,3.905
0.049,0.382,0.924,-1.343,-2.991,6.104,21.465,4.12
0.039,0.371,0.948,2.991,-0.793,-0.183,21.912,3.924
-0.004,0.397,0.913,-10.681,-8.667,-6.958,22.199,3.333
-0.024,0.375,0.91,4.7,1.709,2.319,22.427,0.854
0.026,0.377,0.934,3.479,4.7,5.798,22.304,0.524
0.007,0.367,0.926,-1.282,0.488,1.465,22.377,0.063
-0.017,0.367,0.919,2.625,-0.732,-5.249,21.936,-0.12
0.003,0.405,0.93,-7.568,-7.019,-9.216,22.231,0.265
0.021,0.388,0.917,-0.732,-3.54,-6.653,22.472,0.203
-0.092,0.401,0.921,1.16,-0.183,-1.648,22.938,-1.21
0.037,0.377,0.917,3.357,0.549,0.977,23.094,-0.447
0.012,0.404,0.918,-0.488,-0.061,0.671,23.148,-0.317
0.009,0.392,0.913,-1.77,-0.305,1.648,23.225,-0.503
0.013,0.408,0.911,0.305,0.427,1.16,23.365,1.005
0.005,0.41,0.911,0.244,-0.366,1.099,23.826,0.553
0,0.405,0.915,-2.197,-1.282,0.61,23.858,0.387
-0.001,0.416,0.91,-2.38,-2.747,0.854,24.187,0.245
aX,aY,aZ,gX,gY,gZ,Roll,Pitch
-0.021,0.444,0.886,-1.343,-7.08,0.61,24.811,-0.24
0.038,0.534,0.92,18.738,20.325,1.892,26.357,0.233
0.035,0.437,0.894,4.089,2.197,2.441,26.903,0.722
-0.049,0.422,0.901,6.958,2.136,2.38,27.032,0.047
-0.043,0.407,0.914,2.197,1.465,-0.854,26.393,-0.268
-0.024,0.393,0.92,0.977,1.526,1.343,24.568,-1.173
-0.044,0.41,0.925,0.977,0,4.395,24.01,-2.296
0.019,0.408,0.906,-0.671,1.282,4.822,23.813,-1.323
0.008,0.406,0.92,-2.075,1.953,5.249,23.761,-0.598
0.028,0.416,0.908,7.141,3.052,2.869,24.14,0.143
0.029,0.413,0.916,-3.784,-1.16,2.441,24.226,1.193
0.013,0.396,0.916,7.141,3.052,-1.282,24.013,1.11
-0.051,0.377,0.935,1.343,1.221,1.282,23.55,0.272
-0.061,0.384,0.94,-1.404,-4.578,4.761,22.941,-0.987
0.167,0.452,0.911,3.967,0.61,-21.484,23.476,0.976
0.131,0.301,0.9,6.897,1.343,1.099,22.298,2.673
0.04,0.35,0.931,-2.93,-2.197,0.732,21.934,3.988
0.02,0.366,0.939,2.502,0.732,0.793,21.663,5.157
0.03,0.394,0.935,0.916,0.366,0.732,20.825,3.176
0.021,0.383,0.932,-0.122,-0.427,0.427,21.773,1.567
0.031,0.384,0.926,0.366,0.488,1.343,22.252,1.434
0.034,0.349,0.931,-0.61,-0.427,1.343,22.064,1.634
0.024,0.373,0.932,0.549,-0.916,0.732,21.796,1.563
0.049,0.38,0.931,0.061,1.221,1.77,21.754,1.967
0.112,0.386,0.932,-5.432,-0.977,7.751,21.728,3.121
0.05,0.383,0.922,-1.282,-2.258,7.629,22.232,3.352
0.04,0.412,0.95,-1.587,-0.793,5.493,22.636,3.541
0.042,0.322,0.916,9.338,0.732,-4.517,21.961,3.469
-0.055,0.431,0.921,-0.793,-3.418,-6.165,22.646,1.086
-0.037,0.38,0.931,-2.136,-0.488,2.808,22.553,-0.156
-0.009,0.394,0.923,2.319,-0.305,-2.014,22.466,-0.858
-0.004,0.387,0.929,0,0.183,-0.488,23.25,-1.492
0.002,0.382,0.913,1.099,0.305,-1.709,22.664,-0.69
0.007,0.365,0.926,0.488,0.549,0.488,22.503,-0.058
0.019,0.38,0.934,0.244,0.122,-1.831,22.264,0.35
-0.162,0.4,0.926,-0.122,-1.648,-3.357,22.443,-1.924
0.012,0.373,0.919,1.709,-1.404,-0.916,22.288,-1.769
0.004,0.39,0.919,-2.747,-0.244,1.404,22.645,-1.815
-0.002,0.38,0.913,-5.676,-0.854,1.587,22.751,-2.125
0.004,0.395,0.914,-1.831,-2.136,1.221,22.763,0.266
-0.004,0.405,0.897,-9.399,-10.681,0.977,23.319,0.025
aX,aY,aZ,gX,gY,gZ,Roll,Pitch
-0.032,0.497,0.907,-0.916,-6.47,-0.366,24.791,-0.495
-0.036,0.448,0.92,12.146,14.16,1.404,25.628,-0.983
0.005,0.396,0.906,3.723,1.831,0.305,25.696,-0.976
0.001,0.428,0.908,1.587,1.343,1.038,25.916,-0.9
-0.078,0.397,0.89,5.798,0.977,-0.916,24.729,-1.572
-0.126,0.42,0.933,0.427,2.319,4.944,24.263,-2.86
-0.009,0.396,0.927,-2.502,0.61,5.127,24.138,-3.043
0.055,0.401,0.92,-0.244,2.38,2.502,23.739,-2.27
0.05,0.381,0.907,8.423,6.409,5.432,23.45,-0.442
0.047,0.39,0.922,1.953,0.854,1.648,23.097,2.042
0.011,0.384,0.925,-3.54,-1.099,4.456,22.939,2.33
-0.038,0.405,0.919,-5.188,-1.038,3.357,23.016,0.995
-0.018,0.411,0.92,7.629,5.615,2.747,23.335,0.023
0.011,0.374,0.93,11.963,7.202,-2.38,23.081,-0.495
0.043,0.309,0.949,15.503,6.653,-11.963,21.957,-0.035
0.197,0.323,0.941,11.23,3.052,-4.333,20.701,3.324
0.163,0.242,0.955,1.77,-0.305,4.883,18.19,5.93
0.067,0.333,0.951,-2.319,-0.61,0.488,17.509,6.716
0.083,0.293,0.953,0.122,0.183,1.221,17.248,7.284
0.075,0.293,0.956,0.977,0.305,1.343,16.846,5.543
0.071,0.311,0.953,-1.343,0.305,0.61,17.823,4.214
0.077,0.295,0.952,1.038,0.61,0.61,17.299,4.369
0.076,0.286,0.957,1.953,0.366,0.793,17.199,4.269
0.073,0.299,0.957,2.502,0.549,0.854,17.276,4.245
0.075,0.317,0.953,0.122,0.122,0.488,17.356,4.306
0.143,0.287,0.948,1.16,1.404,1.648,17.239,5.254
0.153,0.326,0.932,-7.385,-2.991,2.502,17.855,6.36
0.083,0.347,0.956,-6.592,-4.517,10.681,18.497,6.472
0.067,0.315,0.918,-0.793,-2.014,3.052,18.632,6.403
0.06,0.342,0.923,-6.287,-6.592,-2.747,19.532,5.216
-0.021,0.423,0.921,-6.348,-4.944,-1.404,20.955,2.704
0.029,0.347,0.926,7.812,5.066,5.737,21.123,1.943
0.016,0.375,0.913,0.061,-1.526,-0.854,21.96,1.202
-0.015,0.409,0.925,-1.038,-0.061,-0.305,22.85,0.121
0.005,0.394,0.913,-3.54,-2.38,-1.77,22.507,0.495
0.02,0.385,0.919,-2.991,-0.305,-2.075,23.049,0.372
-0.107,0.417,0.922,-3.113,-3.784,-5.249,23.553,-1.383
-0.074,0.391,0.921,0.793,-2.38,-2.197,23.329,-2.23
0.006,0.413,0.908,-3.784,-0.854,1.526,23.615,-2.216
-0.003,0.42,0.899,-6.592,-3.479,1.221,24.189,-2.543
-0.012,0.438,0.902,-2.686,-6.348,1.099,24.607,-1.186
aX,aY,aZ,gX,gY,gZ,Roll,Pitch
-0.017,0.434,0.889,-4.15,-5.249,1.648,25.366,-0.371
0,0.463,0.909,24.109,22.705,1.16,26,-0.459
0.013,0.374,0.902,7.202,5.615,3.906,25.389,-0.242
0.016,0.409,0.915,0.977,2.258,3.418,24.928,0.158
-0.059,0.383,0.926,5.127,1.831,1.16,24.045,-0.437
-0.045,0.391,0.928,0.366,1.099,4.639,22.986,-1.089
0.015,0.395,0.926,0.122,0.305,1.709,23.119,-1.041
0.039,0.378,0.914,1.221,2.014,3.845,22.714,-0.711
0.026,0.389,0.925,4.578,4.333,5.31,22.795,0.501
0.018,0.367,0.928,1.77,2.38,3.052,22.471,1.413
0.016,0.36,0.93,2.075,0.61,1.587,21.995,1.431
-0.043,0.36,0.927,-0.977,-0.244,3.906,21.7,0.242
-0.058,0.393,0.93,2.869,2.808,3.723,21.731,-0.964
0.02,0.309,0.928,9.949,7.263,-2.502,20.952,-0.946
0.135,0.357,0.935,14.832,6.226,-17.578,20.886,0.76
0.188,0.327,0.921,3.235,0,-1.526,20.413,4.105
0.111,0.261,0.95,0.427,-1.038,4.883,18.437,6.572
0.052,0.349,0.953,-6.042,-1.953,1.709,18.843,6.965
0.059,0.323,0.948,1.526,1.038,1.465,18.361,5.879
0.054,0.325,0.947,1.648,1.099,0.488,18.275,3.936
0.061,0.323,0.948,1.77,0.732,0.427,19.141,3.204
0.058,0.306,0.95,1.709,0.671,0.549,18.578,3.314
0.068,0.302,0.949,2.38,0.793,0.916,18.291,3.453
0.059,0.336,0.947,0.122,0.305,0.305,18.442,3.516
0.063,0.306,0.952,1.038,15.564,0.244,18.183,3.546
0.117,0.288,0.932,-3.357,0.854,1.16,18.002,4.401
0.154,0.324,0.934,-3.662,-1.404,3.479,18.326,5.633
0.093,0.335,0.95,2.686,-0.549,4.761,18.281,6.118
0.129,0.317,0.931,3.967,-1.282,2.747,18.496,7.093
-0.007,0.341,0.974,-1.587,-2.869,-1.587,19.078,5.247
0.055,0.258,0.921,13.611,2.014,-2.258,18.292,3.883
0.038,0.323,0.965,0.366,-2.502,-7.385,18.064,3.088
0.049,0.261,0.942,5.493,1.343,0.671,17.273,1.94
0.003,0.341,0.963,-8.667,-4.883,-1.587,17.33,2.091
0.041,0.331,0.942,-3.052,-3.052,-0.549,18.227,1.866
-0.038,0.376,0.949,-7.446,-3.662,-2.625,19.032,0.773
-0.09,0.303,0.946,3.601,0.61,0.61,19.573,-1.207
0.043,0.339,0.953,5.249,0,0.427,19.588,-0.636
0.021,0.321,0.942,-0.122,-0.366,1.709,19.45,-0.922
0.013,0.347,0.939,-1.404,0.366,2.075,19.105,-0.194
0.013,0.365,0.933,-1.099,-0.854,0.977,19.994,1.282
-0.007,0.379,0.935,-3.235,-3.784,0.732,20.628,0.562
aX,aY,aZ,gX,gY,gZ,Roll,Pitch
-0.023,0.407,0.91,5.493,-5.432,0.488,21.944,-0.066
-0.028,0.42,0.927,9.583,7.629,2.747,22.981,-0.643
-0.007,0.385,0.919,3.479,1.526,0.977,23.316,-0.929
0.046,0.318,0.945,8.24,3.784,2.991,22.46,-0.173
0.026,0.386,0.926,3.967,2.686,1.648,22.094,0.532
-0.038,0.365,0.927,4.395,2.747,-0.793,21.358,0.382
-0.049,0.377,0.929,2.075,1.526,4.7,21.195,-0.22
-0.03,0.358,0.931,0.854,0.854,5.127,21.797,-1.315
0.044,0.364,0.925,4.211,2.686,4.822,21.51,-1.069
0.044,0.341,0.941,7.263,5.493,6.836,21.125,0.114
0.023,0.327,0.948,4.578,2.625,1.526,20.365,1.148
0,0.31,0.947,2.563,1.099,4.272,19.63,1.592
-0.035,0.321,0.945,-3.54,-1.831,2.747,18.967,0.458
-0.028,0.339,0.956,4.578,3.967,-1.77,18.87,-0.574
0.016,0.329,0.965,11.108,6.104,-5.737,18.815,-0.677
0.181,0.281,0.935,6.348,1.16,-13.062,18.482,1.893
0.235,0.262,0.96,11.23,5.432,2.991,17.53,5.748
0.071,0.243,0.952,-5.859,-1.099,3.174,16.181,7.208
0.09,0.239,0.963,-1.282,0,0.061,14.906,8.323
0.059,0.283,0.965,-1.038,0.549,1.099,14.874,6.538
0.072,0.287,0.96,0.244,0.488,1.343,15.285,4.207
0.074,0.26,0.962,0.916,0.549,0.61,15.48,4.238
0.07,0.295,0.957,1.77,0.244,0.61,16.277,3.937
0.067,0.281,0.962,0.854,0.366,0.244,16.26,4.048
0.073,0.241,0.961,3.967,1.282,0.183,15.627,4.069
0.107,0.257,0.949,2.075,0.916,-0.122,15.628,4.554
0.136,0.272,0.965,-1.77,0.732,1.953,15.25,5.502
0.092,0.31,0.97,-9.216,-3.54,5.249,15.615,5.848
0.09,0.312,0.942,-6.775,-4.517,4.517,16.641,6.081
0.056,0.35,0.943,-1.465,-2.991,0.305,17.954,5.32
-0.007,0.306,0.942,-1.831,-3.052,-0.671,18.567,3.291
0.033,0.337,0.934,6.226,0.061,-0.916,19.104,2.462
0.027,0.352,0.951,-0.732,-0.916,-0.732,19.621,1.56
0.035,0.33,0.953,-5.92,-2.136,2.747,19.307,1.257
0.022,0.349,0.944,-2.319,-0.488,4.272,19.874,1.678
0.017,0.333,0.937,-3.601,0.427,-2.075,19.81,1.452
-0.026,0.393,0.943,-8.179,-5.981,-15.32,20.399,0.691
-0.104,0.4,0.93,-3.54,-5.737,-10.925,21.432,-1.274
-0.062,0.383,0.939,10.132,2.563,-1.465,21.9,-2.465
0.025,0.367,0.927,-0.916,-1.587,1.709,22.41,-2.359
0.015,0.375,0.927,-1.16,-0.366,3.235,22.268,-1.79
0.017,0.389,0.919,-0.366,0.671,2.197,22.2,-0.079
0.013,0.401,0.92,-1.038,0.183,0.366,22.528,0.999
0.008,0.374,0.917,1.282,0.366,0.977,22.666,0.762
0.015,0.402,0.917,-1.892,0.671,0.977,23.085,0.765
0.004,0.414,0.921,-2.197,-2.319,1.404,23.404,0.585
0,0.402,0.908,-0.366,-2.075,1.404,23.492,0.39
-0.012,0.419,0.907,-2.93,-2.38,1.282,24.144,0.105
aX,aY,aZ,gX,gY,gZ,Roll,Pitch
-0.003,0.266,0.954,3.54,-4.089,1.16,22.14,-0.161
-0.009,0.312,0.979,17.395,15.076,0.793,20.479,-0.348
0.029,0.249,0.961,1.343,1.099,1.465,18.156,0.07
0.019,0.287,0.962,-3.174,1.709,1.587,16.121,0.514
-0.032,0.261,0.965,5.859,2.686,0.183,16.011,0.108
-0.015,0.255,0.953,0.977,1.648,3.54,15.32,0.028
-0.008,0.274,0.971,-3.235,-1.587,2.441,15.629,-0.498
0.047,0.259,0.961,8.057,5.066,3.906,15.247,-0.105
0.078,0.291,0.97,2.747,3.601,2.441,15.635,1.458
0.011,0.251,0.967,5.005,2.869,0.549,15.521,1.821
0.032,0.247,0.965,1.587,0.488,0.061,15.173,2.394
0.005,0.269,0.974,-5.432,-4.883,-0.427,15.268,1.796
0.012,0.272,0.977,5.249,5.188,3.052,14.986,0.863
0.007,0.199,0.977,10.01,7.08,-3.174,14.232,0.81
0.216,0.239,0.962,13.977,5.371,-17.883,14.097,3.442
0.25,0.134,0.94,-1.343,-2.502,1.587,12.246,7.019
0.085,0.144,0.982,1.465,-0.244,5.188,10.389,8.098
0.086,0.232,0.981,-1.709,-0.549,1.16,10.819,9.195
0.09,0.198,0.976,-0.732,0.732,0.244,10.265,7.391
0.092,0.209,0.975,1.221,0.549,0.854,11.285,5.061
0.088,0.186,0.982,3.967,1.099,0.732,11.867,5.093
0.088,0.219,0.981,2.502,0.916,1.038,11.673,5.125
0.095,0.231,0.98,-0.854,0,0.977,12.115,5.181
0.102,0.17,0.977,1.77,1.038,0.793,11.555,5.33
0.159,0.192,0.962,3.235,0.488,0.732,11.685,6.37
0.147,0.184,0.981,1.77,1.221,2.991,11.186,7.22
0.181,0.186,0.967,-0.244,-1.282,4.517,10.547,8.479
0.141,0.195,0.968,1.587,-2.197,0.122,10.911,9.044
0.048,0.269,1,-0.854,-1.77,-1.953,11.927,7.368
0.046,0.235,0.972,-5.493,-5.066,-2.808,12.691,5.931
0.079,0.229,0.978,6.836,2.502,0.732,13.286,4.461
0.109,0.176,0.967,2.869,2.075,4.7,13.031,4.004
0.066,0.19,0.987,-0.549,-1.16,3.418,11.965,4.285
0.051,0.209,0.981,-3.601,-3.113,1.77,11.574,4.363
0.042,0.228,0.974,-7.996,-5.066,-2.319,11.578,3.83
0.043,0.238,0.977,1.099,2.93,-1.282,12.425,2.879
0.031,0.203,0.977,11.78,10.803,-3.113,12.647,2.392
-0.004,0.211,1.001,-1.221,-1.77,-6.104,12.62,1.592
0.098,0.162,0.98,6.104,0.183,-0.366,11.677,2.401
0.084,0.22,0.988,-3.845,-2.38,0.244,11.396,2.976
0.076,0.218,0.979,0,0.061,2.808,11.582,3.612
0.07,0.245,0.984,-3.174,-5.493,1.648,12.079,4.676
0.061,0.23,0.958,-1.343,-2.625,2.319,13.11,4.151
aX,aY,aZ,gX,gY,gZ,Roll,Pitch
0.025,0.261,0.961,2.93,-4.395,0.488,13.78,3.327
0.057,0.274,1.004,16.113,14.099,2.075,14.478,3.03
0.056,0.242,0.97,-3.113,-0.854,1.465,14.501,2.841
-0.043,0.286,0.979,-2.258,0.244,2.197,15.199,1.352
0.053,0.27,0.956,5.554,4.944,-1.465,15.333,1.746
-0.006,0.24,0.982,7.629,3.967,-2.075,14.955,0.854
0.02,0.211,0.978,0.183,-3.54,-0.916,14.502,0.336
0.022,0.275,0.985,-6.165,-8.362,3.54,14.332,1.262
0.005,0.304,0.969,-19.958,-8.667,10.559,14.75,0.575
-0.011,0.277,0.955,4.578,6.104,13.977,15.357,0.515
0.001,0.304,0.963,9.583,7.507,5.493,16.681,0.251
0.004,0.219,0.962,13.367,5.493,2.258,15.999,-0.002
-0.008,0.24,0.981,1.77,0.671,1.099,15.077,-0.185
0.012,0.232,0.963,7.507,1.221,2.502,14.424,0.142
0.017,0.253,0.993,-4.456,-3.174,-2.869,13.615,0.368
0.129,0.285,0.945,1.77,-1.282,-7.69,14.589,2.144
0.163,0.188,0.963,8.301,1.587,4.7,13.888,4.607
0.042,0.251,0.975,-0.732,-0.366,0.366,14.104,5.012
0.023,0.248,0.98,-0.854,-0.671,-0.366,14.066,5.118
0.033,0.25,0.966,-0.854,-0.122,0.732,13.525,3.737
0.033,0.244,0.975,1.953,0.671,0.488,14.283,1.868
0.034,0.252,0.966,1.587,1.038,0.732,14.33,1.764
0.039,0.22,0.975,1.404,0.366,1.587,13.964,1.986
0.041,0.24,0.975,0.732,-0.427,0.854,13.799,2.094
0.044,0.241,0.968,0,-0.366,0.366,13.779,2.253
0.089,0.238,0.978,0.183,1.343,-0.305,13.534,3.026
0.063,0.257,0.966,-2.747,-1.953,0.305,14.067,3.373
0.067,0.287,0.965,-4.272,-2.869,4.517,14.746,3.747
0.115,0.229,0.971,3.235,0.61,12.756,14.558,4.761
-0.016,0.224,0.955,9.094,2.197,2.747,14.465,3.295
-0.004,0.247,0.966,6.47,1.16,-6.958,14.341,2.341
-0.026,0.263,0.978,3.845,0.732,-6.042,13.971,1.008
0.074,0.223,0.978,5.188,2.563,-2.563,13.863,0.419
0.028,0.223,0.985,1.282,1.587,-3.906,13.745,1.033
0.065,0.209,0.972,1.953,1.648,-3.479,13.19,2.008
0.019,0.207,0.98,-3.784,-1.892,0.916,12.395,2.643
0.035,0.266,0.971,-7.385,-6.165,-9.888,13.02,2.088
0.001,0.239,0.964,1.343,0.854,-7.385,13.322,1.713
-0.078,0.24,0.977,1.038,-2.197,-3.357,13.74,-0.339
0.067,0.222,0.976,3.967,0.732,1.953,13.96,0.356
0.051,0.249,0.97,-2.014,0.061,1.526,13.732,0.575
0.039,0.26,0.966,1.16,0.061,0.671,14.01,1.12
0.042,0.252,0.966,4.456,3.174,1.465,14.205,2.842
0.056,0.24,0.974,1.404,-0.061,0.427,14.467,2.687
0.043,0.25,0.969,-1.465,-1.709,1.709,14.485,2.586
0.039,0.207,0.955,-0.916,-0.061,3.357,13.784,2.6
0.024,0.267,0.967,-3.296,-5.493,2.075,13.997,2.346
0.027,0.261,0.961,1.526,-0.793,1.77,14.345,1.923
aX,aY,aZ,gX,gY,gZ,Roll,Pitch
0.009,0.275,0.972,1.16,-4.944,0.549,14.676,1.421
0.015,0.249,0.985,17.639,12.085,0.366,15.148,1.058
0.048,0.229,0.977,0.427,-0.305,1.16,14.578,1.398
0.046,0.216,0.973,-0.366,0.549,0.977,13.914,1.678
0.003,0.232,0.989,4.7,2.197,-0.488,13.27,1.597
0.046,0.198,0.982,4.883,1.953,-0.732,12.577,2.046
0.014,0.203,0.976,-3.113,-3.479,0.549,12.222,1.56
0.04,0.221,0.979,3.662,2.747,7.69,12.273,1.466
0.024,0.207,0.986,0.549,1.221,6.775,11.931,1.761
0.014,0.222,0.989,0.244,-0.793,6.531,12.245,1.299
0.033,0.225,0.979,2.136,1.709,3.601,12.54,1.566
0.048,0.179,0.99,2.136,1.221,1.77,11.923,1.686
0.007,0.225,0.976,-5.249,-5.31,-2.38,12.208,1.456
0.039,0.228,0.969,10.681,4.211,-1.526,12.35,1.825
0.007,0.238,0.988,1.099,0.366,-1.038,12.516,1.448
0.17,0.199,0.967,0.427,1.16,-9.033,12.847,3.196
0.156,0.217,0.985,12.39,3.662,1.831,12.67,5.3
0.051,0.193,0.981,-3.723,-1.221,2.869,12.137,5.467
0.056,0.2,0.982,-2.319,-0.427,0.427,11.606,6.186
0.045,0.207,0.987,0.671,0.244,0.366,11.689,4.38
0.055,0.21,0.979,1.038,0.549,0.244,11.618,2.957
0.05,0.198,0.985,2.93,0.854,0.549,11.68,2.935
0.048,0.212,0.983,1.404,0.366,0.61,11.847,2.825
0.048,0.213,0.985,0.977,0.061,0.61,11.94,2.871
0.058,0.194,0.982,0.61,0.183,0.366,11.719,2.915
0.052,0.182,0.993,1.465,0.122,0.61,11.481,2.947
0.135,0.227,0.992,-3.479,0.122,-0.732,11.647,4.166
0.121,0.196,0.968,-6.775,-5.127,8.179,11.435,5.228
0.037,0.275,0.977,-5.798,-4.639,0.793,12.573,4.913
0.021,0.221,0.991,2.197,0.366,-0.061,13.122,4.466
-0.021,0.286,0.99,8.789,2.625,-2.075,13.972,2.245
0.022,0.182,0.977,9.705,4.089,1.465,13.772,0.834
0.052,0.193,0.978,1.709,0.061,0.793,12.638,1.042
0.035,0.214,0.991,-5.188,-2.075,2.441,12.534,1.24
0.01,0.224,0.98,-1.221,-0.671,-2.136,11.695,1.699
0.024,0.216,0.979,0.305,1.16,-5.249,12.16,1.724
0.045,0.219,0.972,-2.38,-2.563,-10.681,12.548,1.629
0.08,0.206,0.973,3.235,1.282,-5.615,12.497,2.283
-0.116,0.255,0.989,2.747,2.136,0,12.919,0.472
0.088,0.192,0.973,1.343,0,3.601,12.592,1.391
0.048,0.212,0.976,1.282,0,0.427,12.472,1.432
0.049,0.229,0.978,2.563,0.427,-0.122,12.766,0.988
0.045,0.228,0.977,0.671,-0.916,1.221,12.405,3.293
0.052,0.227,0.974,-1.587,-0.061,3.418,12.905,2.772
0.023,0.275,0.965,-0.916,-1.831,2.502,13.826,2.418
0.031,0.253,0.964,-0.305,-1.953,2.014,14.222,2.156
0.018,0.256,0.963,-2.869,-2.136,1.282,14.663,1.771
aX,aY,aZ,gX,gY,gZ,Roll,Pitch
-0.014,0.371,0.947,-9.705,-9.155,-0.061,16.763,0.825
0.076,0.114,0.784,27.588,22.095,3.418,15.21,1.677
0.034,0.265,0.95,3.601,2.014,2.563,15.429,1.726
-0.032,0.324,0.962,0.244,1.16,1.465,16.424,0.971
-0.041,0.299,0.953,1.587,1.526,2.808,15.35,0.56
-0.062,0.311,0.966,-2.502,0.427,4.089,17.374,-1.446
-0.063,0.268,0.957,6.775,0.977,3.906,17.379,-2.824
0.049,0.324,0.949,0.854,1.099,4.883,17.445,-1.678
0.013,0.329,0.959,0.061,3.479,2.808,17.83,-0.898
0.035,0.298,0.961,8.545,6.348,3.174,17.681,0.481
0.036,0.291,0.957,1.648,3.052,1.892,17.984,1.893
0.033,0.279,0.965,-0.366,1.77,2.441,17.317,1.665
-0.031,0.27,0.996,4.211,3.418,2.258,16.367,1.028
0.168,0.213,0.945,10.315,6.165,-16.907,15.236,2.938
0.224,0.198,0.98,8.728,4.456,-1.038,13.811,5.62
0.119,0.22,0.976,1.099,0.183,1.099,12.916,6.834
0.09,0.22,0.979,2.014,0.427,1.099,12.216,8.605
0.068,0.259,0.976,0,-0.366,0.61,12.81,7.123
0.088,0.209,0.973,0.854,0.061,0.793,13.03,5.21
0.086,0.229,0.974,1.648,0.244,0.732,13.172,4.752
0.077,0.245,0.978,0.488,-0.244,0.61,13.534,4.557
0.087,0.248,0.974,-0.305,-0.427,0.427,13.375,4.825
0.09,0.218,0.97,0.061,0.366,0.977,13.507,4.845
0.094,0.22,0.976,-0.549,0.061,0.366,13.371,4.955
0.16,0.243,0.962,-5.31,-1.038,1.221,13.361,6.149
0.164,0.322,0.957,-8.484,-4.822,5.615,14.415,7.25
0.073,0.252,0.983,1.953,-2.747,7.935,14.848,6.978
0.047,0.316,0.947,2.502,-3.052,-2.075,16.3,6.323
-0.007,0.331,0.952,-5.981,-6.287,-2.197,17.598,3.944
0.025,0.306,0.945,-1.16,-0.977,4.578,17.473,1.978
-0.019,0.31,0.964,2.991,0.488,5.432,18.358,0.669
0.015,0.309,0.955,-2.869,-1.648,1.892,18.227,0.2
0.013,0.327,0.954,0.183,-2.808,-3.357,18.166,0.48
0.031,0.285,0.946,3.784,3.601,0.61,17.875,0.556
0.018,0.315,0.951,1.465,-2.197,-7.874,18.001,1.078
-0.027,0.309,0.95,-0.549,-3.357,-10.803,18.027,0.49
-0.119,0.276,0.952,3.113,1.038,-2.319,17.339,-1.401
0.024,0.245,0.958,6.47,0.916,0.732,16.732,-1.498
0.031,0.283,0.956,1.709,0.793,2.136,16.26,-1.302
0.024,0.299,0.959,-2.93,-1.16,2.93,16.079,-0.578
0.008,0.308,0.952,-3.54,-3.174,2.686,16.516,1.241
0.007,0.309,0.947,-3.113,-1.404,2.747,17.435,0.994
0.004,0.311,0.943,-1.221,-0.977,1.831,17.883,0.608
aX,aY,aZ,gX,gY,gZ,Roll,Pitch
0.017,0.355,0.954,1.038,-5.676,0.854,18.674,0.515
-0.014,0.329,0.954,9.46,5.432,1.404,18.951,0.211
0.013,0.314,0.95,-0.183,0.244,0.916,19.013,0.303
-0.002,0.305,0.955,4.395,0.854,2.319,18.875,0.21
-0.051,0.29,0.988,13,6.104,1.77,17.847,-0.758
-0.009,0.245,0.955,3.479,2.991,8.911,16.697,-0.698
-0.068,0.278,0.964,-8.24,-6.836,10.315,16.141,-1.849
0.069,0.306,0.973,6.287,3.479,-1.343,16.098,-0.835
0.065,0.246,0.967,11.963,8.728,4.395,15.57,0.815
0.032,0.22,0.963,4.333,2.075,3.479,15.197,1.403
0.098,0.253,0.971,1.831,0.854,0.366,14.799,3.768
0.064,0.235,0.971,-4.883,-2.747,1.953,13.817,3.717
0.009,0.275,0.969,-3.357,-2.319,0.244,14.233,2.907
0.012,0.278,0.969,-1.953,0.61,0.916,15.017,2.608
0.05,0.252,0.958,5.066,2.136,-1.587,15.055,1.926
0.04,0.265,0.978,-0.122,2.563,-1.404,15.447,1.583
0.04,0.278,0.971,2.441,2.991,-2.197,15.468,2.03
0.07,0.256,0.969,0.244,1.465,-2.258,15.15,2.852
0.008,0.255,0.971,-6.714,-0.732,-5.493,15.157,2.245
0.242,0.287,0.952,11.353,4.456,-14.893,15.499,5.13
0.093,0.29,0.955,-5.005,-1.892,1.343,15.712,5.894
0.101,0.288,0.964,-1.953,0.366,-0.793,16.157,6.334
0.093,0.255,0.961,0.854,0.793,0.244,16.147,7.551
0.097,0.284,0.957,-0.183,0.183,0.305,16.157,5.485
0.095,0.261,0.955,0.977,-0.122,0.854,15.757,5.526
0.095,0.259,0.962,2.319,0.854,0.854,15.364,5.45
0.157,0.263,0.96,-3.052,-0.244,2.258,15.451,6.366
0.117,0.292,0.951,-1.892,-3.113,3.479,15.574,6.652
0.098,0.267,0.96,1.526,-2.075,7.019,15.627,6.683
0.064,0.242,0.969,4.333,-0.244,2.869,15.384,6.249
0.051,0.283,0.959,2.319,-1.648,-2.991,15.701,4.726
0.028,0.281,0.962,-2.747,-4.944,-7.385,15.535,3.449
0.03,0.304,0.96,6.287,1.648,1.221,16.072,2.469
0.038,0.273,0.966,0.366,0.916,2.014,16.515,2.083
0.044,0.252,0.965,3.235,1.038,4.395,16.074,1.983
0.063,0.284,0.965,-5.31,-3.296,0.366,16.094,2.479
0.045,0.279,0.946,-2.747,-3.784,1.404,15.8,2.709
0.007,0.321,0.963,-5.066,-3.235,-0.488,16.479,2.263
0.01,0.285,0.949,1.526,1.892,2.319,17.003,1.787
0.007,0.33,0.95,0.61,-2.136,-3.662,17.701,0.985
0.005,0.328,0.951,-0.183,-2.014,-4.15,18.335,0.4
0.006,0.318,0.943,0.061,-2.625,-2.625,18.387,0.387
0.015,0.33,0.948,3.967,3.357,0.916,18.999,0.45
-0.044,0.315,0.947,-1.404,-1.892,0.244,18.82,-0.269
0.026,0.317,0.95,2.93,-0.427,1.648,18.676,0.044
0.018,0.318,0.95,1.099,0.916,1.77,18.636,0.22
0.012,0.308,0.948,2.258,0.305,1.77,18.341,0.189
0.01,0.321,0.951,0.916,0.366,1.77,18.391,0.961
0.006,0.328,0.946,0.427,0.61,2.38,18.567,0.664
0,0.34,0.948,-0.671,-1.282,2.014,18.883,0.398
0.003,0.321,0.936,0.671,-0.549,1.404,19.113,0.26
-0.002,0.339,0.945,0.061,-0.916,0.61,19.388,0.084
-0.006,0.348,0.943,-2.075,-1.709,0.061,19.664,-0.084
aX,aY,aZ,gX,gY,gZ,Roll,Pitch
0.017,0.778,0.58,-5.31,3.296,-2.136,56.72,1.071
0.013,0.741,0.57,22.034,0.977,0,55.674,0.582
0.015,0.66,0.555,10.62,-0.122,2.441,54.002,0.478
0.023,0.662,0.623,16.541,0.488,0.671,50.651,1.062
-0.029,0.734,0.631,12.207,2.93,-2.38,49.607,0.349
0.022,0.7,0.655,11.475,4.15,-2.991,48.184,0.486
0.07,0.692,0.655,5.005,3.235,-2.014,47.369,1.307
0.064,0.718,0.668,2.93,0.61,-2.502,47.436,1.883
0.094,0.683,0.658,2.808,1.099,-1.953,46.536,3.713
0.088,0.698,0.664,1.343,0.183,-1.953,46.34,4.694
0.087,0.689,0.655,2.991,-0.122,-1.648,46.29,4.947
0.076,0.682,0.66,2.808,-0.122,-1.648,45.975,5.17
0.082,0.673,0.662,6.042,0.122,-1.526,45.834,5.006
0.075,0.665,0.666,4.578,1.343,0.244,45.49,4.84
0.067,0.665,0.676,6.226,1.465,1.221,45.031,4.544
0.071,0.683,0.662,3.845,0.183,1.953,45.029,4.465
0.077,0.668,0.676,1.465,0.793,0,44.835,4.374
0.07,0.651,0.687,8.728,0.854,1.343,44.468,4.29
0.069,0.665,0.694,2.014,0.549,2.014,44.272,4.312
0.076,0.644,0.686,3.662,0.61,1.465,43.607,4.396
0.083,0.672,0.682,0.793,-0.305,0.671,43.592,4.49
0.074,0.661,0.689,3.235,0.122,0.061,43.674,4.538
0.078,0.656,0.69,6.165,-0.61,-0.671,43.613,4.672
0.076,0.666,0.693,7.263,-0.122,-1.77,43.765,4.659
0.067,0.646,0.7,4.456,-1.526,-2.014,43.313,4.416
0.066,0.634,0.711,6.409,-0.916,-2.258,42.804,4.301
0.084,0.633,0.708,5.981,-0.732,-2.563,42.355,4.4
0.088,0.624,0.707,4.578,-0.977,-3.113,41.741,4.59
0.085,0.61,0.716,4.089,-0.854,-2.686,41.162,4.878
0.087,0.606,0.718,4.822,-0.61,-2.93,40.751,5.215
0.11,0.627,0.711,1.038,-0.549,-2.014,40.629,5.611
0.109,0.622,0.712,2.93,-0.122,-2.197,40.522,5.928
0.115,0.618,0.713,3.418,0.122,-2.319,40.597,6.373
0.119,0.595,0.713,0.244,-1.526,2.197,40.471,6.867
0.152,0.626,0.701,4.517,-0.854,5.554,40.492,7.515
0.065,0.653,0.727,-5.737,0.793,9.46,40.773,6.789
0.094,0.62,0.723,1.221,0.061,3.418,40.73,6.458
0.114,0.62,0.706,-9.583,0.427,15.503,41.094,6.359
0.091,0.65,0.682,-4.15,2.441,11.597,41.629,5.447
0.036,0.665,0.688,-3.845,2.991,8.179,42.196,5.045
0.032,0.662,0.69,-0.732,1.404,-0.183,43.063,4.108
0.026,0.674,0.672,-8.85,-0.793,-0.916,44.079,2.779
0.016,0.691,0.666,-3.54,-2.258,-1.953,44.726,1.642
0.041,0.692,0.661,-0.305,0.244,-1.099,45.298,1.724
0.014,0.693,0.67,-4.211,-2.563,-1.709,45.846,1.451
0.04,0.699,0.649,-1.16,0.488,-0.427,46.332,1.654
0.018,0.709,0.644,-4.272,-0.671,-0.183,46.76,1.675
0.029,0.7,0.643,-0.671,1.587,-1.404,47.034,1.498
0.031,0.62,0.628,-40.955,2.014,-8.301,46.736,1.798
-0.048,0.71,0.579,4.15,-9.583,-1.16,47.674,0.457
0.026,0.708,0.573,-5.493,-3.479,-0.122,48.481,0.597
-0.005,0.757,0.572,-29.48,-16.235,-7.141,49.921,0.054
-0.009,0.79,0.568,-13.184,-5.371,-0.305,52.298,-0.556
aX,aY,aZ,gX,gY,gZ,Roll,Pitch
0.008,0.692,0.664,8.362,2.747,-0.244,51.124,0.303
0.02,0.712,0.654,5.859,2.38,-0.305,50.221,0.211
0.016,0.606,0.668,19.897,0.671,4.761,47.641,0.533
-0.013,0.742,0.664,-5.127,2.075,-2.686,46.083,0.46
-0.009,0.639,0.693,7.874,3.357,-3.418,45.213,0.2
0.058,0.661,0.674,1.16,2.197,-3.662,44.458,0.781
0.072,0.665,0.674,1.221,1.892,-2.808,45.006,1.613
0.084,0.679,0.68,3.418,2.625,-1.648,44.111,3.09
0.086,0.662,0.695,1.526,1.16,-1.953,44.24,4.497
0.088,0.66,0.679,0.671,-0.305,0.244,44.131,4.941
0.053,0.665,0.678,2.686,-0.061,-0.183,44.116,4.661
0.072,0.653,0.683,2.625,0.427,0.671,43.806,4.508
0.06,0.668,0.678,1.587,0.061,-0.122,44.074,4.135
0.072,0.673,0.672,0.61,-1.343,0.305,44.306,3.878
0.056,0.67,0.683,1.526,2.808,1.343,44.298,3.908
0.039,0.696,0.648,1.099,0.793,2.93,45.164,3.407
0.074,0.657,0.682,3.296,0.916,3.235,44.994,3.623
0.078,0.645,0.684,2.197,0.671,3.174,44.554,3.737
0.1,0.669,0.673,2.014,0.122,1.709,44.61,4.409
0.08,0.666,0.677,4.517,0.183,0.427,43.933,5.023
0.091,0.667,0.673,3.479,0.488,0.244,44.112,5.281
0.108,0.671,0.675,2.869,-0.244,-0.488,44.452,5.703
0.084,0.653,0.693,4.761,-0.427,-1.404,44.094,5.461
0.11,0.702,0.681,-4.517,0.061,2.014,44.388,5.874
0.072,0.624,0.69,0.671,-0.671,1.831,43.791,5.614
0.096,0.679,0.662,-1.587,-2.38,6.042,44.024,5.45
0.072,0.704,0.696,12.451,0.366,-3.906,44.546,5.22
0.069,0.638,0.697,-0.427,-0.244,1.587,43.757,4.641
0.098,0.663,0.672,-2.197,0.793,1.343,44.317,5.01
0.069,0.67,0.679,-5.31,-0.427,1.221,44.074,4.602
0.072,0.688,0.641,-3.662,-2.93,-0.061,44.483,4.662
0.042,0.641,0.675,0,-0.061,-1.892,44.784,4.27
0.021,0.706,0.653,-3.723,-1.587,-2.258,45.528,3.085
0.004,0.698,0.647,1.709,-0.916,-1.953,46.224,2.09
0.029,0.68,0.657,1.709,-1.587,-0.549,45.985,1.434
0.037,0.713,0.654,0.916,-1.16,-0.916,46.96,1.345
0.04,0.684,0.653,2.075,-1.465,-0.854,46.73,1.637
0.044,0.69,0.652,-0.305,-1.221,-0.244,46.57,2.242
0.034,0.697,0.644,1.465,-0.977,-0.61,46.876,2.313
0.033,0.694,0.65,-2.38,-0.549,-0.305,46.724,2.262
0.03,0.663,0.637,-0.183,9.338,-5.249,46.681,2.133
0.023,0.782,0.661,-6.897,-0.183,-2.869,47.536,1.789
-0.003,0.721,0.61,-6.653,-0.977,8.606,48.173,1.243
-0.038,0.711,0.621,-57.495,-23.499,-1.831,48.689,0.184
-0.019,0.831,0.563,-15.076,-7.935,-2.38,51.123,-0.537
aX,aY,aZ,gX,gY,gZ,Roll,Pitch
0.011,0.754,0.643,24.17,4.639,-1.404,51.072,-0.72
0.088,0.576,0.666,10.376,0.122,2.502,49.044,0.638
-0.008,0.73,0.664,7.141,0.977,-2.197,48.736,1.089
-0.016,0.695,0.675,7.446,2.563,-3.052,46.134,1.144
0.059,0.674,0.666,5.31,2.258,-2.075,45.019,1.887
0.074,0.656,0.674,1.648,1.77,-1.709,45.79,1.647
0.063,0.691,0.663,4.517,0.854,-0.427,45.343,2.717
0.077,0.675,0.674,4.639,2.258,-0.977,45.063,4.111
0.071,0.667,0.677,4.883,1.831,-0.427,44.859,4.287
0.075,0.658,0.677,5.066,0.793,0.061,44.843,4.298
0.064,0.666,0.7,7.019,4.028,0.183,44.194,4.305
0.072,0.694,0.69,6.775,2.197,2.075,44.235,4.216
0.097,0.63,0.688,6.104,0.977,4.456,43.699,4.621
0.1,0.631,0.704,4.272,0.732,4.089,43.093,4.991
0.101,0.641,0.704,4.333,-0.183,1.77,42.729,5.562
0.082,0.64,0.703,3.418,-0.488,0.488,41.98,5.749
0.072,0.62,0.709,4.15,-0.427,-0.793,41.689,5.355
0.069,0.631,0.714,5.066,-0.61,-1.587,41.632,4.883
0.079,0.615,0.712,4.456,-0.061,-2.136,41.287,4.566
0.094,0.624,0.717,5.066,-0.427,-3.479,40.951,4.737
0.125,0.613,0.718,2.441,-1.282,-3.052,40.721,5.539
0.148,0.602,0.716,0.488,-0.854,-0.488,40.26,6.741
0.112,0.639,0.718,1.099,-3.235,4.456,40.42,7.196
0.067,0.609,0.748,2.991,0,5.31,39.993,6.781
0.071,0.652,0.71,1.709,2.869,1.648,40.588,5.935
0.071,0.598,0.728,-0.061,1.404,1.465,40.525,4.782
0.088,0.647,0.704,-6.165,1.099,6.348,40.776,4.438
0.079,0.641,0.7,-2.991,0,5.188,41.6,4.628
0.052,0.657,0.703,-4.456,-0.854,3.662,41.752,4.344
0.051,0.665,0.692,-2.258,1.038,2.014,42.875,4.035
0.042,0.68,0.682,-1.16,-0.488,-0.732,43.507,3.345
0.066,0.647,0.679,1.038,-0.549,-0.671,43.801,3.162
0.06,0.689,0.682,-4.883,-2.686,0.061,44.357,3.282
0.043,0.688,0.674,-0.854,-2.014,-0.183,44.787,3.15
0.054,0.679,0.67,-0.854,-1.404,-1.526,44.886,3.325
0.063,0.694,0.652,0.854,-2.075,-2.258,45.667,3.268
0.029,0.677,0.659,-3.235,-0.916,-2.319,45.8,2.832
0.032,0.695,0.658,-1.709,-2.686,-2.319,46.062,2.683
0.021,0.697,0.654,-1.343,-2.563,-2.136,46.446,2.19
0.034,0.704,0.646,-2.869,-3.235,-2.014,46.628,1.758
0.022,0.693,0.653,0.183,-2.441,-1.831,46.858,1.647
0.03,0.707,0.64,1.587,-2.258,-1.282,47.173,1.608
0.01,0.696,0.647,0.183,-2.502,-1.221,47.245,1.451
-0.015,0.704,0.646,-1.404,-2.502,-0.183,47.262,0.71
0.122,0.663,0.464,-5.737,-2.808,-0.427,49.07,2.294
0.058,0.789,0.564,-3.235,3.296,-1.282,50.784,2.724
0.001,0.769,0.566,-9.399,-3.845,-0.549,52.481,2.574
0.016,0.773,0.557,4.028,-2.136,8.179,54.194,3.049
0.026,0.811,0.559,2.258,0.122,-0.61,54.42,1.49
aX,aY,aZ,gX,gY,gZ,Roll,Pitch
-0.013,0.752,0.649,10.925,2.991,-2.258,53.106,0.443
-0.025,0.782,0.668,13.428,3.174,-2.014,52.037,0.064
0.069,0.616,0.677,14.343,1.404,0,49.228,0.844
-0.019,0.704,0.684,3.418,-0.854,-1.16,46.83,0.191
0,0.673,0.68,4.15,0.61,-2.38,45.7,0.381
0.052,0.656,0.689,2.258,0.977,-1.038,44.133,1.546
0.056,0.649,0.673,4.15,1.709,-1.343,44.537,1.338
0.083,0.665,0.679,3.174,0.671,0.732,44.106,2.877
0.076,0.652,0.684,6.653,2.502,-0.671,43.757,4.034
0.072,0.646,0.689,4.272,1.77,0.793,43.625,4.336
0.065,0.643,0.693,3.418,0.61,0.366,43.333,4.459
0.076,0.651,0.699,5.188,2.502,2.747,42.987,4.353
0.088,0.635,0.709,3.113,2.136,2.563,42.534,4.521
0.074,0.645,0.705,4.395,2.258,5.249,42.354,4.536
0.088,0.633,0.702,3.845,0.854,3.052,42.131,4.88
0.072,0.657,0.704,2.686,0.61,1.892,42.149,4.815
0.078,0.631,0.705,3.967,0.061,0.061,42.16,4.677
0.068,0.643,0.711,3.296,0.122,-0.427,42.092,4.585
0.067,0.642,0.708,1.587,-0.244,-1.343,42.151,4.259
0.058,0.623,0.716,0.488,-0.122,-0.488,41.674,4.057
0.134,0.654,0.689,1.404,-1.099,-1.404,42.028,4.891
0.084,0.635,0.715,-1.099,-1.16,2.136,41.882,5.14
0.065,0.625,0.691,-9.705,-1.16,6.226,41.864,5.147
0.1,0.679,0.671,-2.93,-0.427,8.423,42.887,5.777
0.082,0.665,0.68,-1.587,0.366,7.69,43.165,4.995
0.101,0.676,0.672,3.967,1.648,2.136,44.037,5.243
0.106,0.635,0.675,-0.916,0.366,3.357,44.256,5.861
0.072,0.691,0.674,-8.057,-0.305,1.831,44.385,5.428
0.002,0.692,0.666,-9.094,-2.625,-0.793,44.929,4.222
-0.011,0.704,0.655,0.732,-1.465,-4.333,45.502,2.542
0.005,0.722,0.65,-3.54,-2.38,-0.793,46.722,1.02
0.008,0.705,0.647,-1.648,-0.916,-2.014,47.164,0.071
0.036,0.699,0.653,0.183,-2.319,-1.404,47.372,0.571
0.018,0.717,0.641,0.061,-0.671,-1.953,47.653,1.007
0.021,0.712,0.643,0.549,-1.038,-2.075,47.625,1.253
0.019,0.721,0.633,-1.282,-2.258,-1.648,47.94,1.405
0.013,0.716,0.632,0.61,-2.93,-1.953,48.349,1.065
0.017,0.73,0.626,2.136,-1.953,-1.404,48.636,1.039
0.014,0.721,0.632,2.258,-1.16,-1.587,48.844,0.93
0.022,0.702,0.634,1.16,-1.404,-0.854,48.645,0.979
0.001,0.706,0.641,2.319,-1.404,0.183,48.445,0.795
-0.002,0.685,0.633,-2.686,1.709,0.488,47.925,0.518
0.026,0.498,0.606,-13.245,0.183,-17.029,45.858,0.734
-0.105,0.818,0.612,3.601,-7.08,1.16,47.345,-1.247
0.05,0.739,0.533,-17.517,-13.062,-2.93,48.963,-0.485
0.035,0.77,0.586,-24.048,-6.287,-3.357,50.389,0.092
0.021,0.806,0.527,-7.263,-3.662,0.122,54.205,0.02
aX,aY,aZ,gX,gY,gZ,Roll,Pitch
0.065,0.643,0.692,5.981,-0.916,0.732,51.596,2.597
0.011,0.677,0.704,2.991,-2.136,-2.136,49.053,1.976
-0.011,0.678,0.703,4.761,-0.916,-2.319,46.854,1.294
0.034,0.645,0.707,6.226,0,-2.441,43.263,1.473
0.052,0.641,0.706,3.235,1.465,-1.099,43.104,1.285
0.085,0.667,0.699,4.272,0.732,-0.916,43.011,2.391
0.079,0.655,0.692,2.563,1.953,-0.305,42.814,3.743
0.082,0.625,0.71,4.883,0.916,-0.183,42.524,4.474
0.104,0.626,0.68,4.272,1.16,1.099,42.551,5.288
0.098,0.658,0.701,6.653,1.831,2.258,42.413,5.478
0.091,0.613,0.718,11.719,1.038,2.38,41.669,5.674
0.083,0.63,0.724,2.808,0.366,2.319,41.579,5.673
0.078,0.608,0.737,8.118,0.183,2.014,40.86,5.238
0.074,0.598,0.736,10.254,0.305,0.244,39.869,4.903
0.077,0.607,0.744,3.54,-0.183,0.183,39.553,4.679
0.083,0.585,0.74,5.249,-0.244,-0.854,38.886,4.697
0.076,0.582,0.746,3.418,-0.427,-0.793,38.498,4.68
0.094,0.596,0.749,3.967,-0.122,-2.136,38.324,4.971
0.118,0.588,0.742,3.418,-0.488,-2.38,38.082,5.602
0.122,0.582,0.753,4.211,-0.427,-1.709,37.876,6.175
0.096,0.572,0.749,1.404,-0.977,1.831,37.701,6.478
0.122,0.565,0.753,13.733,-0.244,-1.709,37.273,6.914
0.074,0.555,0.786,-2.136,-2.258,6.836,36.539,6.225
0.088,0.6,0.748,-4.883,1.099,5.371,36.837,5.696
0.098,0.556,0.753,4.395,0.732,1.77,36.611,5.726
0.089,0.562,0.768,2.563,1.892,3.662,36.478,5.224
0.088,0.598,0.746,2.38,1.953,3.784,37.339,5.449
0.055,0.55,0.754,-0.671,0.854,2.075,36.716,4.992
0.056,0.598,0.75,-2.563,0.122,0.488,37.287,4.334
0.063,0.589,0.74,-4.211,-0.488,0.061,37.885,3.948
0.068,0.595,0.74,-1.16,-1.892,-0.366,37.918,3.649
0.06,0.614,0.737,1.831,-0.244,1.038,38.83,3.694
0.054,0.61,0.735,-4.15,-1.465,0.122,39.116,3.669
0.039,0.601,0.737,0.061,-1.587,0.305,39.291,3.306
0.032,0.614,0.749,3.113,-2.258,-1.16,39.451,2.758
0.046,0.607,0.729,2.563,-0.732,-1.099,39.447,2.565
0.031,0.608,0.738,4.333,-0.854,-0.061,39.398,2.22
0.044,0.609,0.728,2.014,-0.671,-0.244,39.58,2.295
-0.001,0.489,0.55,-12.512,-5.188,5.859,40.079,1.918
0.001,0.57,0.699,23.193,1.526,-12.268,39.956,1.22
0.054,0.675,0.734,-5.798,3.845,-2.319,40.808,1.575
-0.025,0.633,0.699,-15.686,-7.141,-3.845,41.424,0.467
-0.019,0.716,0.688,-36.926,-15.259,2.747,42.611,0.166
0.01,0.724,0.616,-15.381,-7.751,-0.549,45.122,0.292
aX,aY,aZ,gX,gY,gZ,Roll,Pitch
0.068,0.681,0.647,5.31,0.427,-2.197,46.113,0.501
0.018,0.762,0.654,-1.343,-2.808,0.061,47.895,1.135
0.002,0.691,0.66,9.338,0.854,-1.404,47.932,1.448
-0.005,0.686,0.658,14.954,1.831,-1.892,47.091,1.228
0.047,0.657,0.679,5.005,3.052,-2.563,46.517,0.924
0.097,0.693,0.699,2.808,3.479,-1.892,45.286,2.099
0.043,0.649,0.693,11.658,2.441,-3.723,44.483,2.728
0.078,0.656,0.687,3.54,-0.488,-2.441,43.783,3.966
0.063,0.642,0.716,5.798,0.916,-1.831,43.224,4.188
0.063,0.634,0.678,3.418,-0.427,0.305,42.822,3.749
0.09,0.618,0.701,1.587,1.343,2.014,42.343,4.471
0.077,0.627,0.703,2.686,0.549,3.54,41.868,4.456
0.057,0.64,0.696,2.93,0,2.319,42.046,4.388
0.048,0.632,0.718,8.911,1.404,0.854,41.646,4.117
0.084,0.598,0.72,4.639,-0.61,-1.831,41.235,4.023
0.09,0.642,0.712,-0.61,-1.892,-1.221,41.298,4.207
0.059,0.641,0.709,1.953,-0.122,-1.465,41.174,4.219
0.078,0.632,0.707,-0.366,-0.671,-0.183,41.248,4.68
0.128,0.676,0.692,0.244,-2.197,-1.465,42.339,5.29
0.084,0.626,0.7,2.441,-2.258,2.747,42.284,5.223
0.082,0.641,0.708,-15.32,-3.052,13.794,42.273,5.561
-0.028,0.678,0.676,-22.339,2.075,17.395,43.215,3.972
0.026,0.702,0.648,0.488,2.197,4.7,44.031,2.464
0.012,0.695,0.661,1.587,0.916,0.977,45.22,1.382
0.014,0.708,0.661,3.845,0.61,0.244,46.445,0.361
0.024,0.71,0.667,0,-1.221,-0.244,46.853,1.131
0.032,0.699,0.647,5.371,0.244,-0.854,46.838,1.212
0.035,0.692,0.65,10.254,-2.197,-0.671,46.919,1.548
0.039,0.703,0.663,3.784,0.549,0.244,46.833,1.921
0.023,0.672,0.676,3.601,-0.305,0.061,46.348,1.914
0.013,0.676,0.67,1.77,1.831,-1.587,45.876,1.629
0.018,0.672,0.68,2.747,0.183,-0.732,45.358,1.38
0.004,0.679,0.679,0.366,-0.916,-0.854,44.931,0.857
0.004,0.691,0.67,0.977,-0.977,-0.732,45.198,0.581
0.005,0.688,0.674,-2.625,-1.648,-0.61,45.281,0.47
0.068,0.689,0.687,9.338,20.63,-9.338,45.366,1.211
-0.006,0.68,0.657,7.324,-3.967,7.751,45.628,1.066
-0.016,0.686,0.635,-23.254,-16.663,5.737,45.963,0.772
0.024,0.734,0.616,-7.141,-0.122,-4.822,47.07,1.05
0.017,0.756,0.59,-14.404,-9.766,-2.441,48.837,0.282
aX,aY,aZ,gX,gY,gZ,Roll,Pitch
0.039,0.656,0.654,5.188,3.174,-1.465,48.613,0.967
-0.055,0.725,0.689,10.62,2.014,-2.625,48.399,0.366
-0.056,0.697,0.691,7.202,5.249,-3.479,47.197,-0.824
0.099,0.624,0.662,0.122,2.197,-2.136,45.066,0.392
0.102,0.667,0.665,3.54,0.916,-2.258,45.051,1.343
0.09,0.654,0.681,2.747,-1.465,-1.282,44.289,3.551
0.075,0.67,0.696,0.366,-0.61,-1.709,43.787,5.553
0.097,0.652,0.692,1.038,-0.427,-0.244,43.796,5.472
0.058,0.656,0.706,6.287,0.793,0.854,43.312,4.779
0.083,0.646,0.683,1.343,-0.549,1.465,43.202,4.691
0.062,0.66,0.687,1.831,-0.61,3.052,43.193,4.508
0.065,0.635,0.693,3.967,0.244,2.686,43.021,4.03
0.049,0.651,0.693,0.549,0.671,1.831,43.117,3.903
0.064,0.659,0.693,3.845,-0.061,0.916,43.176,3.603
0.061,0.653,0.695,4.456,-0.488,-0.183,43.029,3.599
0.052,0.636,0.701,3.418,-1.892,-1.282,42.977,3.404
0.082,0.625,0.699,2.502,-1.953,-1.953,42.59,3.914
0.082,0.634,0.695,-2.319,-0.854,0.977,42.275,4.196
0.124,0.658,0.686,0.61,0.305,0.366,42.342,5.147
0.062,0.65,0.7,7.141,-2.197,1.465,42.488,5.285
0.066,0.654,0.716,-0.061,-2.625,5.737,42.664,5.003
0.011,0.636,0.697,0.122,1.77,1.16,42.737,3.944
0.102,0.667,0.684,0.549,0.305,0.61,42.879,3.606
0.033,0.652,0.711,1.465,-0.61,0.366,42.819,3.158
0.008,0.676,0.695,-0.488,0.244,-1.404,43.303,2.305
0.042,0.645,0.679,1.953,-3.357,-0.61,43.562,2.774
0.027,0.667,0.692,-0.061,-0.61,-0.549,43.517,1.65
0.038,0.674,0.689,0.244,0,-0.854,43.978,1.725
0.036,0.646,0.69,-0.427,-2.441,-0.122,43.693,2.149
0.038,0.676,0.673,-1.099,-1.221,-1.221,44.102,2.066
0.024,0.672,0.676,-1.831,-2.686,-1.77,44.324,2.023
0.016,0.663,0.673,-0.427,-1.953,-1.465,44.385,1.705
0.033,0.674,0.668,3.296,-1.16,-0.977,44.921,1.661
0.026,0.668,0.669,0.244,-2.319,-1.099,44.88,1.49
0.048,0.766,0.637,-3.906,-2.319,-0.977,46.278,1.837
-0.192,0.897,0.751,-20.874,-5.798,-18.555,47.779,-1.201
-0.033,0.723,0.66,3.235,4.944,-1.038,48.291,-2.115
-0.024,0.679,0.66,-11.23,-8.301,-1.465,48.459,-2.816
0.01,0.801,0.639,-33.081,-4.089,-6.531,48.727,-3.323
aX,aY,aZ,gX,gY,gZ,Roll,Pitch
-0.008,0.663,0.694,2.38,2.014,-0.427,47.206,-0.806
-0.032,0.68,0.678,10.376,2.136,-2.197,46.583,-0.805
0.034,0.635,0.688,7.202,5.31,-3.845,45.836,0.054
0.129,0.62,0.715,7.019,3.113,-2.625,43.082,1.854
0.076,0.628,0.71,-2.075,0,0.244,42.482,3.133
0.074,0.643,0.695,-2.441,-0.488,0.122,41.796,4.747
0.057,0.658,0.683,0.793,-0.427,0.061,42.076,5.07
0.063,0.667,0.689,1.526,0.61,-0.183,42.948,4.053
0.057,0.656,0.686,5.371,1.221,0.061,43.517,3.763
0.063,0.648,0.691,4.089,0.183,0.244,43.624,3.608
0.066,0.652,0.686,0.183,-0.366,1.404,43.527,3.749
0.064,0.657,0.691,-2.93,-0.732,2.014,43.388,3.776
0.06,0.681,0.682,1.099,0.305,0.732,43.699,3.809
0.04,0.658,0.689,3.601,-0.305,-0.183,43.846,3.452
0.051,0.661,0.693,2.319,0.305,-0.488,43.882,3.223
0.052,0.652,0.691,1.77,-0.122,-0.427,43.836,3.039
0.091,0.658,0.684,1.404,-0.732,-1.343,43.539,3.515
0.107,0.661,0.676,-2.075,0.427,0.427,43.646,4.525
0.064,0.67,0.677,4.395,-1.587,1.282,43.889,4.721
0.082,0.629,0.691,4.272,-1.099,1.77,43.595,5.205
0.077,0.671,0.691,-1.099,-1.099,3.723,43.68,4.976
0.062,0.626,0.68,-2.502,0.427,3.296,43.297,4.326
0.033,0.682,0.677,-0.122,-0.244,2.441,43.461,3.853
0.029,0.681,0.669,2.563,0.366,0.183,44.309,3.026
0.041,0.667,0.674,-0.366,0,0.549,44.47,2.486
0.049,0.68,0.669,-1.77,-0.916,-0.122,45.177,2.276
0.053,0.686,0.667,0.305,-0.61,0.427,45.316,2.572
0.062,0.707,0.669,3.601,-3.723,-2.258,45.567,3.062
0.037,0.682,0.664,2.319,-0.916,-1.099,45.833,3.001
0,0.681,0.673,2.991,-1.77,-2.075,45.835,2.269
0.015,0.673,0.678,6.47,-0.305,-0.427,45.599,1.714
0.029,0.677,0.677,4.15,-1.953,-2.197,45.207,1.218
0.03,0.673,0.673,3.662,-1.831,-1.77,45.023,1.116
0.014,0.653,0.686,0.183,-1.526,-1.587,44.578,1.319
0.022,0.694,0.678,-2.991,-1.404,-2.014,44.804,1.412
0.04,0.671,0.67,-1.404,-1.648,-1.404,44.81,1.588
-0.002,0.709,0.665,-17.09,-1.892,1.404,45.282,1.095
-0.063,0.737,0.615,1.221,18.066,-7.446,46.929,-0.045
-0.027,0.684,0.647,5.737,-0.244,-1.343,47.152,-0.78
-0.077,0.769,0.658,-29.48,-24.048,-1.099,48.211,-2.49
0.033,0.761,0.582,-15.869,-1.892,0.488,49.663,-1.973
aX,aY,aZ,gX,gY,gZ,Roll,Pitch
0.029,0.661,0.676,39.856,2.319,3.357,44.335,1.781
-0.007,0.644,0.695,-15.686,2.014,0.732,43.583,0.676
-0.002,0.855,0.57,3.418,-1.831,-2.869,48.048,0.407
0.002,0.669,0.681,6.104,2.075,0.732,47.167,0.33
-0.01,0.703,0.636,5.188,2.808,2.93,48.029,-0.263
-0.005,0.732,0.665,7.141,6.165,0.854,49.217,-0.222
-0.002,0.68,0.708,16.968,3.54,-0.732,45.986,-0.235
-0.065,0.652,0.748,-2.625,5.615,1.648,45.091,-1.212
-0.02,0.669,0.723,21.423,7.812,-1.648,43.837,-1.337
0.049,0.626,0.738,9.949,5.676,-4.578,42.003,-0.568
0.116,0.617,0.713,-4.517,-2.441,-3.906,41.256,1.166
0.054,0.644,0.746,2.258,1.953,-0.732,41.133,2.927
0.057,0.634,0.76,5.066,3.662,-0.671,40.335,4.057
0.083,0.624,0.761,5.066,2.258,4.333,40.056,4.535
0.096,0.612,0.743,1.343,2.136,1.709,39.733,4.222
0.053,0.62,0.755,-1.16,-0.183,1.526,39.381,4.215
0.069,0.63,0.738,5.859,2.38,-0.916,39.532,4.401
0.06,0.659,0.759,-6.348,2.747,-2.686,39.972,4.057
0.11,0.62,0.749,-0.244,0.977,-2.563,40,4.253
0.113,0.614,0.752,2.869,-1.404,-1.282,39.895,5.134
0.088,0.634,0.74,-1.709,-3.052,-2.136,39.89,5.408
0.11,0.632,0.749,-0.977,-2.808,-2.686,39.622,6.158
0.058,0.642,0.759,4.395,0.549,-3.723,39.835,5.378
0.074,0.569,0.744,6.226,-3.845,-15.93,39.451,4.858
0.169,0.631,0.748,2.747,-3.967,-8.179,39.251,6.033
0.117,0.656,0.76,-7.385,-1.465,0.183,39.405,6.1
0.119,0.627,0.732,-4.272,0.061,2.38,39.402,7.034
0.117,0.622,0.736,7.141,2.014,-0.549,40.011,7.593
0.106,0.623,0.752,2.075,1.099,0.183,39.988,6.687
0.129,0.607,0.747,0.854,0.549,1.343,39.537,6.934
0.147,0.636,0.752,-0.305,3.296,2.38,39.408,7.301
0.129,0.616,0.727,5.066,5.371,5.554,39.391,7.499
0.095,0.639,0.735,-0.549,0.977,1.16,39.747,7.356
0.103,0.684,0.708,-2.869,0.549,1.587,41.014,6.943
0.168,0.647,0.7,-1.099,2.686,2.991,41.595,7.301
0.135,0.633,0.69,-3.906,0.244,8.423,42.13,7.424
0.026,0.704,0.725,-0.366,-0.244,7.507,43.046,6.344
0.09,0.6,0.686,17.029,5.371,0.488,42.367,6.276
0.05,0.763,0.802,-9.216,1.038,-3.357,42.774,4.345
0.107,0.634,0.545,11.963,1.16,-2.441,44.273,4.048
0.073,0.68,0.642,-1.465,-5.615,-2.38,44.821,4.838
0.062,0.73,0.731,2.075,1.099,2.258,45.738,4.27
0.057,0.649,0.62,0.366,0.977,7.507,46.485,4.612
0.056,0.676,0.685,2.991,8.85,2.258,45.465,3.704
0.052,0.674,0.691,1.038,-5.92,-0.61,44.905,3.37
-0.027,0.665,0.686,-3.967,-9.521,1.221,44.751,2.101
0.052,0.693,0.672,10.986,-2.319,-0.671,44.683,2.004
0.006,0.699,0.713,18.433,-3.601,1.77,44.654,1.244
aX,aY,aZ,gX,gY,gZ,Roll,Pitch
0.026,0.527,0.833,27.71,-1.953,3.967,41.66,0.849
-0.001,0.608,0.822,-30.701,7.874,-0.427,39.734,1.201
-0.001,0.5,0.846,31.616,7.263,0.977,35.993,0.421
-0.041,0.361,0.825,10.254,6.409,-0.183,30.971,-0.26
0.036,0.462,0.863,11.658,5.005,0.183,29.91,-0.101
0.132,0.426,0.871,6.775,5.615,-2.136,27.157,1.901
0.097,0.469,0.859,-0.549,4.578,-3.174,26.618,3.376
0.114,0.458,0.853,3.967,2.686,-0.732,27.621,5.571
0.107,0.446,0.867,4.578,3.113,0.61,27.336,6.605
0.109,0.454,0.868,6.348,2.502,-1.221,27.754,6.253
0.116,0.462,0.866,0.916,1.892,1.16,27.611,6.522
0.1,0.447,0.868,0.305,0.061,1.282,27.377,6.318
0.118,0.446,0.852,4.028,1.953,-1.099,27.47,6.499
0.125,0.445,0.857,-0.854,1.16,-2.686,27.404,6.751
0.155,0.465,0.861,3.296,2.258,-2.38,27.43,7.322
0.157,0.45,0.858,0.732,3.784,-4.15,27.472,8.165
0.15,0.441,0.869,-0.183,0,-1.465,27.252,8.596
0.154,0.464,0.864,0.916,-1.465,-0.793,27.422,8.976
0.156,0.465,0.847,-0.671,-0.61,-5.493,27.521,9.022
0.182,0.461,0.848,4.761,-1.221,-4.395,27.699,9.375
0.203,0.435,0.863,5.493,1.099,0.793,27.599,10.15
0.149,0.457,0.853,4.028,1.343,0.732,27.593,10.12
0.147,0.457,0.877,4.456,1.892,0.305,27.293,9.924
0.171,0.447,0.86,1.648,1.77,0.916,27.048,9.759
0.17,0.415,0.89,9.216,2.014,2.625,26.645,9.262
0.195,0.432,0.811,3.723,3.296,2.747,26.529,10.042
0.146,0.417,0.879,-7.019,0.305,6.775,25.999,10.066
0.131,0.426,0.881,6.287,-2.38,-0.061,25.642,9.466
0.146,0.43,0.845,-4.272,-2.869,4.883,26.161,9.198
0.103,0.484,0.833,-7.629,-4.883,12.451,26.8,7.759
0.071,0.454,0.904,4.15,4.333,5.371,27.191,6.61
0.091,0.478,0.869,4.578,2.991,6.836,27.976,6.011
0.099,0.449,0.853,3.296,-0.244,0.427,28.192,5.308
0.084,0.483,0.875,-2.014,-4.7,1.892,27.913,4.977
0.061,0.487,0.873,2.93,0.061,0.732,28.542,4.847
0.059,0.474,0.844,-2.319,-7.629,-1.892,28.684,4.42
0.011,0.484,0.848,6.042,-4.395,-0.916,29.214,3.125
0.027,0.472,0.851,3.235,-5.737,0.427,29.263,2.315
-0.012,0.472,0.86,0.549,-2.747,0.61,29.193,1.25
-0.066,0.437,0.871,10.742,-2.747,0.427,28.54,-0.593
aX,aY,aZ,gX,gY,gZ,Roll,Pitch
0.071,0.289,0.939,6.592,0.671,0.061,17.043,4.127
0.082,0.278,0.942,-5.859,4.944,-2.319,16.705,4.463
0.12,0.27,0.942,2.014,-1.709,-1.343,16.426,5.308
0.079,0.291,0.95,3.967,0.183,2.625,16.563,5.118
0.032,0.295,0.938,2.686,4.028,10.803,16.672,4.555
0.036,0.333,0.819,-3.479,3.54,-1.709,17.993,3.987
0.024,0.294,0.767,-2.38,1.709,-6.165,19.221,2.657
0.146,0.223,0.998,2.869,0.916,-6.592,17.969,3.673
0.153,0.278,0.909,3.784,2.991,-4.028,17.804,5.589
0.049,0.277,0.884,10.498,-1.221,-1.831,16.691,5.718
0.069,0.287,0.886,2.625,-0.854,-2.197,16.061,6.225
0.156,0.296,0.924,7.141,3.174,-3.906,17.419,6.456
0.095,0.257,0.95,3.906,1.526,1.709,16.966,5.537
0.134,0.268,0.943,4.761,-1.709,-0.977,16.541,6.701
0.123,0.301,0.965,-3.723,-2.075,-0.977,16.386,7.338
0.111,0.244,0.927,0.977,-3.479,-1.282,15.669,6.707
0.086,0.313,0.942,-4.822,-0.244,-16.907,16.486,6.564
0.158,0.224,0.931,6.287,-0.427,-4.272,15.912,6.959
0.084,0.212,0.93,5.127,0.793,0.488,14.809,6.497
0.105,0.256,0.943,2.38,1.709,0.366,14.932,6.39
0.123,0.24,0.953,0.732,0,-0.916,13.827,6.933
0.159,0.272,0.931,-6.287,0.061,1.343,14.501,6.916
0.127,0.317,0.924,-14.282,-1.709,0.122,15.984,7.494
0.129,0.352,0.914,-12.939,-0.305,1.77,17.419,7.832
0.099,0.393,0.889,7.751,2.014,3.357,19.843,7.512
0.147,0.399,0.883,7.08,-1.038,1.831,21.832,7.348
0.075,0.4,0.906,15.686,-0.977,0.977,23.091,6.565
0.065,0.297,0.942,6.226,6.165,8.423,22.233,5.626
0.06,0.353,0.917,2.93,3.174,0.366,21.568,5.051
0.099,0.356,0.919,4.517,-0.61,1.099,20.823,4.331
0.097,0.352,0.92,-1.038,1.77,4.639,20.089,4.662
0.073,0.297,0.905,-2.136,-3.113,-3.357,20.273,4.831
0.08,0.371,0.914,4.395,-1.587,-1.343,20.526,5.106
0.059,0.345,0.906,-0.305,-7.324,-2.502,20.461,4.548
-0.016,0.374,0.93,-3.296,1.587,-2.258,20.742,2.873
-0.014,0.379,0.903,5.249,0.854,-2.502,21.897,1.582
0.023,0.364,0.932,0.671,-4.822,-2.258,21.717,0.752
0.043,0.354,0.921,1.892,0.732,0.305,21.767,0.515
aX,aY,aZ,gX,gY,gZ,Roll,Pitch
0.038,0.156,0.974,22.949,-2.075,3.113,9.122,2.197
0.035,0.143,0.973,2.014,1.587,0,8.736,2.104
0.027,0.393,0.965,-16.479,2.747,-1.526,13.374,1.896
0.049,0.216,0.956,-4.395,0.488,1.099,13.217,2.139
0.042,0.254,0.971,-13.428,-0.122,-2.319,14.591,2.193
-0.074,0.381,0.884,-2.625,7.141,2.136,18.242,0.633
0.064,0.285,0.95,1.343,5.554,0.305,16.814,1.178
0.072,0.307,0.937,6.897,5.92,1.587,18.148,1.511
0.075,0.262,0.951,11.475,3.174,2.563,18.336,1.99
0.104,0.235,0.953,1.587,0.61,0.61,15.973,4.568
0.098,0.253,0.947,2.319,0.549,-1.587,15.523,5.075
0.122,0.249,0.94,13.794,-0.122,3.906,14.689,5.809
0.104,0.24,0.953,0.854,1.282,0.916,14.368,6.246
0.075,0.226,0.951,1.709,-0.305,-2.319,14.259,5.831
0.081,0.227,0.946,3.052,-1.953,-5.005,13.891,5.604
0.115,0.249,0.943,2.991,-0.366,-10.01,13.876,5.495
0.038,0.212,0.965,8.606,4.883,-15.869,13.449,4.523
0.155,0.235,0.963,1.587,-1.831,-8.911,13.515,5.656
0.158,0.222,0.961,1.892,-1.465,-10.498,13.376,6.736
0.157,0.212,0.943,5.981,0,-4.456,12.835,7.352
0.12,0.171,0.944,6.653,1.038,-2.686,12.285,8.585
0.184,0.152,0.958,2.136,-0.244,0.793,11.096,9.05
0.129,0.184,0.95,4.639,0.732,-0.854,10.59,8.666
0.117,0.202,0.964,3.784,1.221,-0.122,10.419,8.055
0.132,0.172,0.954,2.869,2.258,-0.854,10.414,8.215
0.198,0.2,0.932,-7.446,2.686,-3.601,11.178,8.456
0.189,0.186,0.915,-2.502,0.305,-0.366,11.279,9.409
0.155,0.249,0.954,-36.56,-2.686,6.47,11.961,9.949
0.099,0.31,0.929,3.784,0.061,0.366,14.03,9.446
0.145,0.32,0.936,-2.686,4.089,0.671,15.734,8.601
0.125,0.261,0.934,1.526,3.662,15.442,16.745,7.608
0.109,0.327,0.905,-12.695,-4.272,7.019,18.066,6.994
0.059,0.271,0.927,0.488,2.808,5.005,17.558,6.442
0.09,0.282,0.925,7.874,-0.488,-2.197,17.103,5.672
0.093,0.283,0.937,-9.949,-4.333,-6.897,17.403,5.183
0.07,0.354,0.906,2.869,-3.052,-1.587,17.785,4.606
0.022,0.348,0.94,-4.333,-2.197,-2.136,18.811,4.02
0.043,0.328,0.922,1.953,-2.991,-0.061,19.481,3.33
-0.02,0.354,0.924,-0.854,-7.08,-1.038,20.548,1.682
-0.059,0.33,0.933,6.592,-4.089,0.061,20.101,-0.201
0.004,0.38,0.936,-0.427,1.465,0.427,20.545,-0.455
-0.004,0.313,0.935,24.048,-0.793,-0.305,20.269,-1.142
aX,aY,aZ,gX,gY,gZ,Roll,Pitch
-0.021,0.79,0.622,11.108,0.549,0.061,27.874,-1.182
-0.028,0.792,0.642,12.39,-0.854,-0.977,35.962,-0.722
-0.036,0.802,0.589,-95.825,5.737,-0.244,44.03,-1.319
-0.004,0.773,0.547,-17.639,-1.282,0.488,52.728,-1.287
-0.026,0.893,0.448,-3.845,3.052,0.305,55.654,-1.372
-0.042,0.879,0.455,-20.813,7.874,0.916,58.611,-1.587
-0.083,0.908,0.408,17.578,11.23,-3.357,61.634,-2.269
0.002,0.882,0.447,7.08,7.874,-4.395,63.656,-2.156
0.048,0.872,0.438,5.676,5.432,-3.296,63.709,-1.091
0.066,0.89,0.456,8.789,0.305,-6.165,63.783,0.475
0.068,0.843,0.459,13.672,-1.282,-3.113,62.584,2.687
0.091,0.841,0.493,-2.869,-2.502,-2.319,61.578,4.006
0.093,0.835,0.489,8.667,-1.648,-1.526,60.576,4.665
0.103,0.837,0.494,2.869,-2.258,0.793,59.633,5.243
0.067,0.813,0.521,7.996,4.333,1.099,58.64,5.211
0.111,0.837,0.517,4.15,-1.099,1.892,58.265,5.481
0.092,0.835,0.489,-2.625,-7.935,-7.324,58.262,5.472
0.12,0.844,0.501,2.563,-7.935,-2.747,58.195,5.699
0.106,0.846,0.516,6.714,-2.747,-2.197,58.402,6.227
0.104,0.806,0.529,7.08,0.183,-0.244,58.034,6.156
0.169,0.984,0.521,30.884,-1.16,-1.831,58.573,7.005
0.057,0.826,0.529,-2.502,2.136,1.343,58.269,6.132
0.08,0.813,0.537,3.906,1.77,-0.366,57.844,5.797
0.101,0.806,0.532,3.113,1.77,0.977,57.814,5.754
0.05,0.789,0.5,3.723,5.432,0.122,56.778,4.265
0.077,0.862,0.548,-4.7,-0.916,4.517,56.802,4.52
0.07,0.798,0.532,4.028,4.028,3.174,56.759,4.388
0.012,0.855,0.547,-8.545,4.578,3.662,57.101,3.054
0.084,0.836,0.483,-9.949,2.38,2.93,57.634,3.528
0.101,0.831,0.489,-9.644,2.38,6.226,58.085,3.921
-0.003,0.873,0.452,0,5.249,3.418,59.741,2.84
0.029,0.892,0.431,15.32,9.033,3.479,61.445,3.102
0.051,0.84,0.504,-3.174,0.244,-0.122,61.249,2.609
0.019,0.863,0.447,6.409,-1.648,0.366,62.09,1.408
0.019,0.87,0.444,19.104,7.69,3.845,62.165,1.732
0.017,0.808,0.504,10.925,5.92,4.089,60.647,1.565
0.015,0.869,0.535,-16.602,4.7,4.272,60.477,1.021
0.041,0.872,0.449,-7.812,-4.089,2.93,60.499,1.341
-0.028,0.893,0.439,-0.488,-1.526,2.563,60.74,0.644
-0.057,0.876,0.462,6.531,2.747,0.122,61.751,-0.421
0.003,0.866,0.45,5.371,-2.502,-1.77,62.812,-0.601
-0.007,0.867,0.451,6.592,-0.854,-0.061,62.734,-1.305
0.013,0.9,0.447,5.676,1.038,-1.343,62.703,-0.705
-0.005,0.863,0.463,6.409,0.488,1.953,62.609,0.053
aX,aY,aZ,gX,gY,gZ,Roll,Pitch
0.019,0.666,0.709,29.663,-0.366,0.549,57.865,0.289
0.01,0.691,0.693,-15.686,4.089,-3.418,53.455,0.546
0.051,0.766,0.613,-4.089,0.549,-3.113,50.302,1.11
0.029,0.778,0.625,13.611,1.892,-2.197,47.679,1.594
0.031,0.676,0.683,36.682,6.775,0.854,48.053,1.768
0.029,0.698,0.691,10.193,-1.709,-2.93,48.133,2.046
0.037,0.674,0.725,-1.343,6.287,-2.808,46.023,1.845
0.057,0.664,0.697,5.066,8.484,-2.014,44.085,2.272
0.086,0.67,0.717,15.442,6.104,0.244,43.643,3.068
0.149,0.614,0.725,7.385,7.507,-1.282,42.293,4.851
0.146,0.63,0.732,-8.057,2.625,3.052,41.602,6.472
0.1,0.622,0.73,2.258,-2.502,4.944,40.753,7.097
0.106,0.651,0.729,6.775,0.488,0.916,40.392,7.397
0.138,0.641,0.725,7.263,-0.061,-2.014,40.706,7.208
0.113,0.628,0.748,7.751,-0.305,-0.427,40.582,6.718
0.107,0.623,0.753,2.686,-3.723,0.732,40.356,6.786
0.053,0.619,0.759,7.751,-7.019,-1.709,39.802,6.02
0.122,0.575,0.776,6.531,0.061,-3.723,38.61,5.789
0.149,0.588,0.779,3.723,0,0.854,37.838,6.303
0.138,0.567,0.787,15.869,1.404,-1.099,36.858,6.776
0.149,0.531,0.79,1.648,2.014,-0.854,35.411,8.221
0.068,0.589,0.804,-2.014,0.61,-0.732,35.409,7.385
0.099,0.569,0.787,0.366,0.488,0.061,35.174,6.671
0.186,0.54,0.78,17.517,4.15,0.183,34.846,7.398
0.133,0.57,0.784,-15.381,-2.197,-2.747,35.385,7.128
0.179,0.591,0.729,-16.907,1.648,0.061,35.891,8.857
0.104,0.557,0.726,6.714,8.606,8.972,36.268,9.066
0.112,0.69,0.658,-16.357,7.385,7.812,39.28,7.978
0.072,0.729,0.705,-3.906,3.967,8.85,41.951,6.987
0.098,0.705,0.676,4.883,1.038,8.728,43.845,5.729
0.057,0.667,0.682,3.174,-2.38,-4.395,45.508,4.965
0.092,0.692,0.678,1.465,-0.305,-1.77,45.342,4.649
0.11,0.674,0.712,5.005,2.625,2.808,44.653,5.246
0.066,0.678,0.671,1.16,-2.319,2.258,44.459,4.801
0.043,0.707,0.673,0.916,-3.052,2.563,44.989,4.572
0.044,0.708,0.673,-1.221,-8.118,-7.568,45.269,3.863
0.023,0.729,0.67,1.099,-0.366,-3.54,46.353,2.576
0.023,0.721,0.655,-7.751,-7.996,-6.348,46.987,1.933
0.014,0.693,0.708,8.789,2.991,0.549,46.491,1.509
0.06,0.705,0.664,-5.554,1.282,0.366,46.547,1.751
0.049,0.697,0.679,22.644,-3.357,6.653,46.106,2.134
aX,aY,aZ,gX,gY,gZ,Roll,Pitch
0.039,0.746,0.633,18.311,-1.892,-2.136,46.57,2.379
0.039,0.824,0.607,-85.51,8.972,-8.179,48.928,2.725
0.074,0.796,0.569,2.075,1.831,-1.77,50.817,2.922
0.053,0.777,0.67,24.475,2.136,-9.216,51.643,2.945
0.006,0.712,0.662,44.067,0.366,-1.221,51.051,2.469
0.067,0.669,0.717,32.166,0.61,-2.258,48.379,2.904
0.118,0.624,0.739,27.283,1.099,-5.615,44.844,3.549
0.141,0.554,0.799,29.541,5.005,-2.625,41.086,4.888
0.172,0.471,0.836,12.695,1.282,-2.258,36.527,7.347
0.152,0.544,0.818,-13.123,-0.183,-2.197,34.058,8.559
0.135,0.524,0.807,10.071,1.099,-0.183,32.275,8.796
0.153,0.522,0.813,-2.319,1.038,5.615,31.757,8.98
0.146,0.507,0.825,-6.531,6.653,10.559,32.321,8.589
0.111,0.536,0.813,2.747,2.136,9.277,32.311,8.01
0.09,0.546,0.822,3.54,-0.122,5.981,32.519,7.311
0.084,0.548,0.821,10.376,1.099,-0.732,32.852,6.278
0.139,0.52,0.819,7.446,-0.488,0.244,33.063,6.167
0.145,0.488,0.834,7.935,-0.488,-1.648,32.284,6.672
0.135,0.469,0.852,3.296,0.061,-1.77,31.054,7.358
0.157,0.451,0.849,4.639,0.549,1.038,29.532,8.475
0.164,0.452,0.841,5.615,-0.732,0.732,28.475,8.872
0.091,0.505,0.845,0.366,0.671,-1.038,28.674,8.054
0.104,0.467,0.856,0.183,0,-0.122,28.656,7.589
0.118,0.465,0.853,6.165,0.305,0.305,28.857,6.999
0.149,0.448,0.87,-5.371,0.671,-1.343,28.624,6.734
0.191,0.48,0.825,-15.015,-1.77,-1.648,28.339,8.244
0.087,0.529,0.835,1.282,1.282,4.272,29.29,7.98
0.113,0.543,0.785,-7.996,0.427,-0.977,30.776,7.946
0.111,0.568,0.784,3.967,3.906,2.686,32.978,7.406
0.111,0.583,0.816,-3.357,7.019,8.667,34.4,6.157
0.093,0.61,0.765,-1.465,4.761,8.362,35.951,6.258
0.068,0.561,0.801,15.686,10.315,6.287,36.073,5.564
0.076,0.611,0.766,6.592,2.625,1.038,36.757,5.051
0.069,0.598,0.781,0.244,-8.24,-2.197,37.274,4.464
0.044,0.582,0.787,0.854,-5.554,-2.747,36.788,3.745
0.054,0.572,0.788,6.409,-3.174,-4.456,37.043,3.548
0.044,0.594,0.783,-0.793,-0.61,-0.183,36.715,3.075
0.057,0.583,0.794,0.061,2.625,0.366,36.43,2.902
0.094,0.587,0.755,-13.062,-0.916,2.808,36.739,3.658
0.02,0.63,0.74,-21.851,-4.333,2.563,37.852,3.172
-0.064,0.643,0.747,11.475,-2.93,4.272,38.801,1.592
0.02,0.638,0.75,10.62,0.671,0.366,39.845,1.042
0.031,0.61,0.78,-7.874,-2.075,-3.357,39.874,0.121
aX,aY,aZ,gX,gY,gZ,Roll,Pitch
0.011,0.724,0.663,9.705,0,0.183,41.646,-0.014
0.008,0.722,0.671,3.723,1.404,0.366,43.228,1.026
0.008,0.715,0.703,-5.31,4.7,1.648,44.516,0.844
0.009,0.764,0.618,-2.747,0.854,4.272,47.755,0.512
-0.016,0.77,0.618,-15.076,3.418,3.967,48.697,0.111
-0.025,0.801,0.604,3.113,8.911,4.7,50.173,-0.361
-0.046,0.843,0.545,6.531,7.751,1.587,53.093,-1.13
-0.035,0.684,0.619,10.498,10.437,5.066,52.362,-1.786
0.025,0.727,0.63,-15.686,8.423,-0.549,51.857,-1.188
0.051,0.811,0.579,-7.629,4.089,-4.395,52.256,-0.063
0.068,0.809,0.548,1.648,1.221,-1.282,51.883,1.626
0.037,0.798,0.574,8.423,5.981,-1.587,53.383,2.654
0.068,0.783,0.582,5.859,2.197,-1.77,54.378,3.265
0.083,0.788,0.584,2.258,-3.296,1.221,54.086,3.732
0.053,0.773,0.598,1.465,-0.916,1.587,53.204,3.509
0.118,0.764,0.584,9.033,2.319,-1.526,52.66,4.711
0.068,0.758,0.613,5.737,-0.61,-0.854,52.089,4.721
0.088,0.759,0.62,7.324,-0.977,-1.648,51.405,4.808
0.086,0.725,0.694,14.038,2.319,0.122,49.84,5.254
0.089,0.704,0.661,12.146,0.061,-3.906,48.478,4.825
0.152,0.743,0.689,14.465,1.282,-3.54,47.392,5.973
0.204,0.566,0.745,17.212,0.427,-2.869,43.97,7.718
0.139,0.594,0.702,5.432,-3.601,-4.456,42.39,8.669
0.096,0.634,0.752,-2.686,0.427,3.174,40.735,8.726
0.095,0.659,0.721,5.371,0.305,0.183,39.591,7.957
0.12,0.647,0.715,-0.793,0.122,0.183,40.926,6.663
0.147,0.649,0.709,-8.24,1.038,1.16,41.448,6.71
0.116,0.686,0.687,-11.78,3.174,4.395,42.613,7.031
0.088,0.738,0.681,-5.798,0.793,3.235,43.867,6.882
0.038,0.785,0.597,-13.55,-2.38,1.648,46.617,5.668
0.1,0.72,0.64,10.498,7.935,1.221,48.116,4.982
0.087,0.778,0.594,-5.127,-0.732,-2.197,50.047,4.542
0.089,0.778,0.568,-0.488,7.324,3.54,51.677,4.61
0.041,0.8,0.587,-3.784,1.709,6.775,51.917,4.657
0.037,0.85,0.527,-4.456,-12.634,-2.991,54.449,3.693
0.07,0.802,0.567,-3.052,-2.38,-0.671,54.986,3.447
0.05,0.822,0.571,3.723,-4.089,0.061,55.363,2.854
0.011,0.772,0.59,6.714,-5.249,-0.732,55.126,2.434
0.039,0.788,0.573,-1.831,-2.075,-2.136,54.064,2.487
0.021,0.797,0.577,-0.793,-4.517,-4.395,53.947,1.766
-0.067,0.801,0.577,3.052,0,2.075,53.729,0.055
0.046,0.786,0.575,1.404,2.502,0.671,54.031,0.558
0.045,0.795,0.59,7.141,-1.404,2.075,53.891,0.634
aX,aY,aZ,gX,gY,gZ,Roll,Pitch
0.031,0.775,0.593,11.963,-0.977,-0.366,53.505,0.787
0.041,0.737,0.613,-1.892,1.038,0.854,52.465,2.388
0.039,0.819,0.582,-33.325,6.47,-2.441,52.691,2.275
0.044,0.81,0.555,-2.441,-0.61,0.427,53.233,2.27
0.03,0.81,0.553,-2.075,1.77,3.54,54.007,2.247
-0.007,0.856,0.563,11.414,6.592,7.69,55.614,1.519
0.01,0.912,0.518,34.668,5.859,-0.244,57.108,1.089
0.026,0.765,0.61,10.742,9.399,-0.549,56.11,0.843
0.094,0.76,0.589,-4.7,5.981,-2.014,55.251,1.763
0.076,0.808,0.554,-1.099,5.493,-3.174,54.894,2.98
0.096,0.798,0.56,4.456,3.601,-2.441,53.324,4.292
0.106,0.779,0.586,12.268,1.526,-2.38,53.588,5.464
0.09,0.732,0.596,17.151,2.93,0.854,53.273,5.431
0.117,0.745,0.597,7.446,1.465,0.183,52.133,6.075
0.118,0.745,0.628,4.639,0.061,-1.77,50.82,6.401
0.146,0.717,0.635,21.24,0.061,-2.563,49.608,7.017
0.107,0.698,0.687,11.108,-1.038,-2.136,48.237,7.211
0.138,0.633,0.729,23.682,-4.456,-2.502,45.686,7.503
0.19,0.595,0.718,-6.47,-4.089,-12.939,43.061,8.632
0.198,0.601,0.753,-12.512,-1.404,-2.319,40.535,9.362
0.181,0.684,0.726,3.601,0.916,2.93,39.869,10.378
0.119,0.638,0.737,2.686,0.916,0.916,39.892,10.077
0.126,0.622,0.748,6.409,1.648,0.61,40.043,9.074
0.128,0.611,0.752,4.272,0.61,0.549,40.289,8.06
0.17,0.605,0.754,4.028,0,2.991,39.164,7.972
0.106,0.585,0.771,10.864,3.662,3.418,38.27,7.804
0.125,0.584,0.77,2.747,1.343,2.014,37.637,7.793
0.126,0.604,0.767,-0.061,0.061,1.282,37.436,7.746
0.118,0.604,0.77,-0.549,1.099,1.343,37.357,6.97
0.154,0.593,0.75,-9.949,-1.465,2.136,37.564,7.678
0.132,0.637,0.73,-8.24,1.831,7.568,38.513,7.774
0.063,0.688,0.69,-2.747,1.953,1.221,40.265,6.877
0.075,0.674,0.722,23.437,15.198,11.353,41.556,6.226
0.054,0.621,0.741,1.282,8.484,7.202,42.076,4.754
0.082,0.645,0.747,-1.892,0.366,1.465,42.053,4.015
0.07,0.661,0.696,-7.507,-1.831,-0.488,41.692,4.128
0.04,0.68,0.714,0.366,-0.977,-0.427,41.869,3.611
0.071,0.704,0.674,-0.244,-4.15,-2.38,43.405,3.849
0.061,0.707,0.683,-0.916,-7.568,-6.287,44.725,3.542
0.079,0.705,0.665,-1.099,-4.639,-3.784,45.49,3.663
0.037,0.724,0.671,-6.836,-4.639,-3.113,46.394,3.62
0.05,0.715,0.668,5.188,-2.319,-1.404,46.599,3.31
0.015,0.698,0.695,5.798,-2.197,0.305,46.424,2.633
0.046,0.679,0.686,7.751,-0.305,0.122,45.965,2.155
0.047,0.707,0.678,0.183,0.671,-0.671,45.704,2.315
0.047,0.715,0.671,0.916,-0.305,0.183,45.667,2.27
0.038,0.717,0.679,-4.15,-0.366,0.122,46.016,2.613
0.043,0.689,0.683,29.175,-2.258,-1.343,46.14,2.571
aX,aY,aZ,gX,gY,gZ,Roll,Pitch
