aX,aY,aZ,gX,gY,gZ,Roll,Pitch
0.004,1.017,0.029,49.072,-4.7,3.906,88.357,0.213
-0.001,0.957,0.081,-11.536,0.854,-0.793,86.811,0.092
0.016,0.959,-0.049,-16.235,-1.038,-3.296,88.746,0.384
0.023,0.947,0.07,4.517,0.793,1.099,87.962,0.629
0.015,0.982,0.019,6.653,3.235,0.61,88.02,0.796
0.015,0.989,0.021,3.052,2.563,-0.061,88.636,1.022
0.018,0.989,0.027,4.578,0.977,-1.465,87.745,1.038
-0.021,0.997,0.037,7.324,3.601,-2.686,88.455,0.394
0.003,0.965,0.081,20.142,3.906,-7.324,87.595,0.225
0.03,0.98,0.1,4.761,6.836,-2.625,86.414,0.442
-0.022,0.995,0.108,5.981,9.766,-1.892,85.271,-0.147
0.101,0.966,0.153,21.973,12.878,-4.944,83.341,1.622
0.106,0.905,0.238,13.733,-0.305,-1.099,80.599,3.159
0.113,0.973,0.138,-8.179,-9.033,3.113,79.62,4.374
0.079,1.002,0.121,-7.202,-8.667,9.888,78.774,5.837
0.117,0.954,0.218,16.479,8.789,9.216,77.82,6.077
0.08,0.879,0.249,40.527,5.31,-7.019,77.782,5.733
0.101,0.977,0.232,-16.479,-11.536,3.357,76.666,5.523
0.118,0.954,0.258,6.409,-1.648,-8.362,74.499,6.126
0.14,0.988,0.145,-39.978,-17.883,2.502,75.434,6.435
0.117,0.975,0.166,-11.414,-5.432,-4.211,76.552,6.84
0.123,0.956,0.132,10.864,-1.038,-2.502,77.479,7.232
0.018,0.974,0.145,-7.751,0.183,-0.549,79.663,5.785
0.127,0.983,0.122,0.671,-2.808,-2.136,80.021,5.603
0.096,0.956,0.18,0.305,2.563,1.953,79.969,5.312
0.099,0.965,0.144,5.737,1.099,-0.122,80.031,4.946
0.096,0.968,0.145,0.732,-0.427,-0.122,79.415,6.081
0.116,0.957,0.169,2.014,2.38,1.16,78.874,5.949
0.133,0.975,0.14,3.052,3.235,-1.221,79.097,6.473
0.156,0.97,0.126,3.601,8.118,1.099,78.806,7.285
0.156,0.952,0.143,-2.502,7.446,3.479,78.2,8.19
0.124,0.966,0.138,-10.742,8.118,4.944,78.465,8.295
0.123,0.937,0.046,5.31,0.488,-1.953,79.365,8.251
0.09,0.992,0.15,14.404,23.743,6.47,79.897,7.247
0.031,1.005,0.083,11.047,23.315,1.77,81.884,5.358
0.054,0.946,0.1,16.357,2.014,-3.54,82.913,4.372
0.029,0.946,0.114,-1.77,-4.211,-4.822,82.795,2.984
0.038,0.945,0.056,7.08,-8.24,0.732,84.289,2.252
0.063,0.98,-0.005,-27.222,-9.46,6.775,85.178,2.741
0.025,0.984,0.091,-1.282,-2.686,-1.709,85.561,2.29
0.042,0.941,0.045,-15.198,-12.634,3.54,86.263,2.487
-0.074,1.023,-0.183,31.494,-6.592,-2.502,88.89,0.81
0.08,0.953,0.066,0.854,2.136,-2.563,88.888,1.077
0.057,1.001,0.025,2.502,1.221,-0.305,88.304,1.544
0.088,0.981,0.036,5.981,0.732,1.648,87.66,2.192
aX,aY,aZ,gX,gY,gZ,Roll,Pitch
0.055,0.948,0.114,25.452,-5.371,-2.38,84.563,4.124
0.07,0.941,0.158,-7.812,0.916,0.854,83.684,3.977
0.022,0.901,-0.047,42.664,7.996,-2.38,84.686,3.552
0.085,1.009,0.057,-11.353,-1.282,2.808,84.52,3.486
0.054,0.95,0.106,2.625,10.254,-0.122,84.62,3.467
0.014,1,0.046,10.559,8.85,-1.587,86.469,2.589
-0.026,0.946,0.151,3.296,10.132,-2.136,84.415,1.849
0.031,0.891,0.111,3.906,-4.578,-0.793,83.651,1.087
0.073,0.99,0.05,-12.268,-8.423,-2.441,84.468,1.365
0.097,1.005,0.058,16.724,-3.418,-3.174,83.891,2.601
0.123,0.955,0.11,24.109,5.676,-1.709,83.139,4.799
0.032,0.978,0.105,1.282,1.16,7.141,83.341,4.707
0.083,0.921,0.159,11.78,6.409,8.667,81.938,4.923
0.098,0.974,0.147,0.061,-1.526,5.92,80.802,4.954
0.111,0.953,0.12,0.793,-2.686,0.488,80.765,4.777
0.029,0.989,0.111,-1.77,-1.343,0.488,80.748,4.716
0.048,0.972,0.135,6.775,-1.77,-5.493,81.406,4.157
0.052,0.96,0.145,-9.583,-8.057,-10.803,81.708,3.499
0.102,0.969,0.135,-5.92,-8.057,-5.188,81.59,3.363
0.164,0.961,0.108,-1.587,-3.784,-2.563,80.599,5.373
0.126,0.944,0.143,1.892,1.892,2.075,79.757,6.547
0.112,0.979,0.11,5.066,0.488,1.221,79.587,7.399
0.121,0.976,0.145,5.798,1.526,-1.038,79.322,7.65
0.184,0.983,0.144,8.179,5.188,-2.441,78.814,7.886
0.19,0.937,0.145,11.78,14.526,5.371,78.117,8.818
0.119,0.963,0.135,5.737,12.939,9.521,77.756,8.952
0.097,0.947,0.145,2.258,10.01,7.874,77.912,8.668
0.025,1.023,0.167,-7.019,17.944,10.864,79.283,6.285
0.067,0.95,0.172,2.441,15.869,4.456,79.897,4.482
0.029,0.974,0.179,-2.502,4.883,1.77,79.837,3.157
0.011,0.958,0.091,-2.502,-17.944,-3.113,80.938,1.919
0.022,0.983,0.127,-9.583,-13.367,2.686,81.415,1.892
0.02,0.989,0.059,-14.404,-14.404,5.066,83.228,1.199
0.002,0.989,0.066,-3.174,-5.432,-0.854,84.922,0.811
-0.014,0.986,0.063,5.005,-2.625,-2.502,85.404,0.436
0.024,0.993,0.044,4.578,-1.465,-0.977,86.608,0.466
0.013,1.03,0.05,3.601,-3.601,1.16,86.79,0.356
0.04,1.006,0.03,-6.653,4.028,-0.183,87.187,0.889
0.054,0.983,0.047,1.77,1.099,0.549,86.934,1.861
0.049,0.981,0.012,2.38,-0.732,0.488,87.008,2.23
0.034,0.989,0.026,1.587,-1.221,0.732,86.948,2.555
0.035,0.984,0.016,1.099,0.977,-0.549,87.1,2.501
0.036,0.979,0.023,4.15,-0.122,0.916,87.487,2.245
0.032,0.99,0.012,1.16,0.549,0.061,87.724,1.983
0.023,0.998,0.045,2.869,1.038,0.305,87.706,1.826
aX,aY,aZ,gX,gY,gZ,Roll,Pitch
0.016,0.97,0.029,10.864,-0.549,1.831,87.781,1.562
0.016,0.988,0.059,-7.874,3.54,-1.038,87.556,1.266
0.02,0.954,0.006,3.357,1.77,-0.854,87.689,1.11
0.03,0.979,0.025,4.883,1.221,0,87.873,1.214
0.028,0.981,0.001,6.042,2.319,-0.122,88.073,1.387
0.032,0.982,0.018,0.916,0.977,-0.793,88.206,1.631
0.028,0.988,0.019,0.183,0.977,-1.099,88.033,1.736
0.025,0.995,0.017,-0.671,0.977,-2.38,88.16,1.653
0.003,0.983,0.036,6.958,9.094,-3.601,88.166,1.278
0.014,0.993,0.013,3.723,8.545,-0.793,88.405,1.005
0.033,1.02,0.079,12.756,4.395,-2.136,87.648,1.065
0.019,0.987,0.07,15.076,6.287,-1.343,86.975,0.979
0.06,0.98,0.09,14.465,7.08,-4.761,85.938,1.796
0.08,0.977,0.111,10.498,3.906,-2.197,84.232,2.757
0.116,0.978,0.115,15.076,-6.042,0.977,83.098,3.98
0.128,0.966,0.15,-5.798,-6.165,6.47,81.194,5.58
0.091,0.974,0.133,-6.409,-6.409,3.052,80.424,6.033
0.049,1.002,0.109,-10.132,-5.005,11.169,80.788,5.555
0.051,1.001,0.143,5.493,-3.052,-8.972,81.028,4.596
0.118,0.977,0.108,5.493,-5.249,-7.935,81.64,4.436
0.126,0.969,0.136,-3.296,-1.953,-2.502,81.315,4.945
0.137,0.989,0.105,-1.892,-0.061,0.671,80.556,6.213
0.074,0.987,0.088,-1.099,0.793,0.488,80.865,6.568
0.099,0.966,0.107,-0.183,0.549,0.61,81.041,6.312
0.07,0.981,0.1,3.479,2.136,0.122,81.999,5.494
0.102,0.968,0.112,4.822,2.441,0.061,82.222,5.017
0.129,0.968,0.115,1.831,2.38,0.732,81.374,5.837
0.108,0.981,0.1,-4.089,2.197,2.991,81.388,5.956
0.127,0.987,0.099,6.226,5.92,0.732,80.819,6.766
0.13,0.966,0.142,7.69,14.709,2.563,80.232,7.166
0.097,0.957,0.13,-2.441,13.062,3.662,80.38,6.727
0.127,0.98,0.084,1.343,14.893,7.446,80.348,6.997
0.066,0.987,0.117,2.625,19.653,4.272,80.78,6.112
0.024,0.993,0.14,-3.418,5.676,4.211,81.793,4.539
0.029,0.977,0.082,0.122,-1.709,0.671,82.925,3.536
0.024,0.979,0.063,-4.395,-2.747,0.671,83.82,2.054
-0.024,0.954,0.075,-6.958,-14.893,5.31,84.669,0.755
0.03,0.991,0.004,-6.897,-17.212,3.967,86.598,0.846
-0.014,0.997,0.084,4.883,-10.864,-2.747,86.686,0.223
-0.107,1.099,0.106,-17.7,-1.892,-1.221,85.842,-1.638
0.038,0.963,0.058,6.226,1.526,-0.061,86.353,-0.756
0.029,0.975,0.062,0.061,1.282,0.854,85.538,-0.762
0.019,0.986,0.052,2.136,-0.244,0.916,86.035,-0.297
0.017,0.99,0.045,3.052,0,-0.549,86.493,1.511
0.015,0.974,0.062,3.967,0,0.916,86.57,1.176
0.02,0.982,0.058,5.066,-1.282,0.977,86.676,1.034
0.012,0.978,0.068,11.658,-2.502,4.333,86.479,0.938
aX,aY,aZ,gX,gY,gZ,Roll,Pitch
0.001,0.982,0.06,7.507,0.366,0.732,86.31,0.701
0.003,0.984,0.061,-12.268,6.714,-2.563,86.376,0.514
0.015,0.961,0.054,7.385,2.808,-0.61,86.42,0.442
0.007,0.976,0.05,-2.441,-0.488,0.854,86.69,0.36
-0.002,0.993,0.022,2.991,3.723,-1.099,87.257,0.318
0.01,0.981,0.029,3.357,4.517,-0.549,87.698,0.431
-0.051,1.02,0.017,2.808,3.967,-1.221,88.233,-0.518
-0.044,0.998,0.06,6.836,1.343,-0.793,87.797,-1.24
-0.009,0.96,0.055,5.554,0.244,-0.61,87.316,-1.343
0.032,1.005,0.075,1.831,3.601,-3.357,86.849,-1.026
0.052,0.975,0.09,9.705,1.099,-4.761,85.896,0.461
0.053,0.961,0.096,7.629,0.916,-3.296,84.982,1.884
0.074,0.982,0.114,0.488,-2.441,-2.258,83.728,3.069
0.08,0.966,0.096,12.146,1.343,-2.075,83.041,3.804
0.058,0.968,0.099,2.808,-1.221,4.456,82.881,3.894
0.099,0.948,0.097,5.615,2.991,7.812,82.465,4.573
0.038,1.003,0.141,5.859,0.488,-2.808,82.475,4.021
0.108,0.958,0.119,8.423,1.404,0,81.964,4.44
0.091,0.973,0.128,-13.794,-9.888,-6.409,81.354,4.909
0.094,0.976,0.105,5.615,-11.475,-8.179,81.351,4.81
0.136,0.972,0.12,7.629,-1.221,-2.441,80.649,6.277
0.093,0.943,0.126,-3.479,2.625,2.441,80.677,6.074
0.091,0.969,0.14,5.066,1.16,0.244,80.54,6.077
0.079,0.963,0.112,11.536,3.235,0.977,80.577,5.871
0.099,0.961,0.129,3.296,1.099,0.061,80.771,5.341
0.121,0.967,0.123,4.272,1.526,0.61,80.624,5.726
0.103,0.982,0.102,0.305,1.038,0.61,80.968,5.885
0.154,0.998,0.103,-6.836,2.38,2.502,80.398,6.915
0.16,0.955,0.06,0.977,3.601,6.104,80.349,7.818
0.06,0.967,0.102,7.385,7.507,3.357,81.23,6.939
0.05,0.974,0.139,2.686,6.042,2.747,81.437,6.189
0.09,0.975,0.076,4.761,7.874,2.441,82.325,5.291
0.078,0.98,0.118,-6.165,23.621,13.611,82.44,4.063
0.071,0.989,0.091,3.113,2.563,-4.517,82.533,4.193
0.05,1.003,0.093,-5.92,3.174,0.61,83.133,4.155
0.008,0.978,0.074,4.578,0.793,2.563,83.8,2.978
-0.018,0.999,0.092,-11.536,-9.033,0.366,84.713,1.586
0.008,0.978,0.096,-11.047,-8.301,-4.089,84.815,0.692
0.035,0.966,0.06,-3.845,-7.69,-8.85,85.263,0.492
-0.02,0.992,0.077,-2.502,-8.179,4.578,85.272,0.089
0.041,1.012,0.041,-3.723,-7.996,6.47,85.925,0.942
0.034,0.981,0.026,1.16,4.333,0.122,86.777,1.321
0.036,0.985,0.024,-1.343,1.221,0.916,87.26,1.322
0.033,0.984,0.02,3.418,0.122,1.099,87.373,2.09
0.024,0.984,0.027,3.357,0.549,0.366,87.672,1.859
0.022,0.986,0.032,3.235,0.366,0.61,87.755,1.677
0.016,1.005,0.045,18.799,-5.493,2.197,87.746,1.374
aX,aY,aZ,gX,gY,gZ,Roll,Pitch
0.016,0.984,0.069,14.282,-2.014,0.916,87.259,1.128
0.01,0.998,0.052,-12.085,5.737,-2.625,87.004,0.921
0.024,0.991,0.028,2.258,1.16,-0.793,87.048,0.95
0.029,0.99,0.006,1.038,2.869,-1.892,87.476,1.153
0.021,0.973,0.032,1.77,0.61,0.916,87.899,1.219
0.007,0.991,0.03,3.052,2.686,0.366,88.173,1.18
-0.053,0.946,0.115,14.221,7.874,-0.305,87.313,0.061
-0.027,0.994,0.08,9.949,8.728,-2.075,86.149,-0.763
-0.009,0.975,0.082,9.399,12.695,-2.38,85.344,-1.188
0.032,0.975,0.116,11.78,8.728,-5.127,84.158,-0.834
0.067,0.953,0.126,23.926,2.686,-2.075,83.995,0.928
0.092,0.973,0.148,9.155,-1.648,-1.404,82.55,2.68
0.104,0.961,0.133,2.808,-6.653,1.587,81.156,4.33
0.08,0.934,0.14,-7.935,-2.197,3.723,80.41,5.078
0.059,1.015,0.147,-4.211,-0.305,5.981,80.369,4.873
-0.006,0.996,0.12,4.028,-1.221,-2.38,81.425,3.422
0.013,1.013,0.13,2.686,-4.7,-7.263,81.999,2.078
0.112,0.957,0.128,-0.366,-2.563,-1.892,82.065,2.531
0.154,0.914,0.044,-27.71,-10.498,-2.258,82.619,3.99
0.098,0.971,0.055,18.921,1.526,-2.38,82.326,5.563
0.119,0.975,0.08,4.822,-0.061,-2.258,81.472,7.19
0.108,0.97,0.113,3.967,-0.183,-1.343,81.674,7.108
0.092,0.972,0.096,4.578,-1.343,-1.038,82.078,6.11
0.089,0.978,0.094,0.122,1.038,-0.244,81.826,5.956
0.103,0.98,0.102,3.357,0.488,-0.061,81.777,5.712
0.096,0.967,0.118,3.967,3.418,0.305,81.834,5.545
0.161,0.955,0.107,9.583,3.54,-0.305,80.995,6.555
0.117,0.974,0.133,8.911,2.197,2.502,80.303,6.96
0.161,0.957,0.134,10.315,8.789,1.282,79.317,7.845
0.113,0.977,0.184,14.404,19.043,4.822,78.516,8.05
0.126,0.969,0.156,0.366,7.202,4.517,78.381,7.507
0.095,0.986,0.15,11.597,17.395,15.625,78.424,7.17
0.005,0.987,0.216,11.536,13.489,-0.671,78.709,4.864
0.018,0.963,0.233,17.578,4.456,-10.925,78.515,3.505
0.085,0.936,0.223,-1.16,-5.493,-4.028,77.668,2.931
0.077,0.95,0.192,-9.766,-8.057,3.296,77.038,2.689
0.071,0.963,0.173,-9.033,-10.986,-1.221,77.317,3.687
0.046,0.963,0.138,0.122,-8.423,-1.77,78.487,4.113
0.047,0.97,0.167,-1.526,-6.836,-2.319,79.524,3.539
0.068,1.002,0.168,-6.226,-6.042,2.502,80.013,3.368
0.036,0.97,0.181,3.723,-1.282,1.587,80.079,2.849
0.095,0.971,0.161,5.493,4.761,-1.282,79.562,3.545
0.088,0.97,0.179,5.005,-1.343,1.282,79.191,4.132
0.08,0.955,0.182,6.775,-1.038,0.671,78.817,4.344
0.078,0.961,0.192,0.916,0.244,1.465,78.4,4.969
0.077,0.955,0.18,1.709,0.122,0.732,78.22,4.721
0.064,0.993,0.185,11.841,-1.587,1.953,78.343,4.35
aX,aY,aZ,gX,gY,gZ,Roll,Pitch
0.038,0.996,0.206,13,-2.075,1.343,78.351,3.698
0.056,0.941,0.207,-14.648,3.784,-0.122,78.188,3.388
0.037,1.015,0.136,-4.7,-1.831,-0.366,79.103,2.786
0.056,1.028,0.051,-39.429,-5.493,-1.953,81.023,2.662
0.051,0.971,0.094,5.798,1.831,1.038,82.399,2.878
0.015,0.983,0.097,11.78,6.47,1.099,84.135,2.281
0.022,0.97,0.145,13.306,7.08,1.221,84.026,2.083
-0.032,0.965,0.195,10.925,11.902,1.404,82.176,0.827
0.03,0.941,0.17,-4.639,10.742,1.282,81.046,0.519
0.069,0.953,0.157,7.935,12.085,-2.258,80.024,1.308
0.095,0.972,0.176,1.892,5.798,1.282,79.403,2.381
0.089,0.97,0.195,1.16,4.395,0.549,78.9,4.139
0.067,0.959,0.167,0.549,-0.549,4.333,78.781,4.657
0.043,0.948,0.193,-7.019,-5.371,7.202,78.437,4.287
0.084,0.975,0.147,5.615,-2.686,-2.502,78.891,4.129
0.022,0.973,0.127,-8.24,-17.639,-3.296,80.151,3.161
0.121,0.994,0.052,8.301,0.916,-3.052,81.443,3.944
0.078,0.932,0.213,14.709,2.869,-0.427,80.929,4.455
0.088,0.965,0.176,0,-3.418,-5.188,80.511,4.521
0.052,0.875,0.215,5.249,1.709,-0.305,78.907,5.073
0.087,0.963,0.154,2.014,0.244,0.61,77.666,4.567
0.076,0.969,0.157,0.488,0.793,-0.61,78.542,4.517
0.075,0.97,0.161,1.831,0.793,0.061,78.83,4.324
0.09,0.964,0.159,3.296,0.549,-0.061,79.581,4.786
0.07,0.966,0.157,-0.977,0.671,-0.122,79.655,4.548
0.085,0.968,0.155,0.122,0.793,-0.427,79.622,4.676
0.089,0.971,0.154,3.357,1.099,1.221,79.615,4.873
0.12,0.958,0.174,5.554,3.601,-0.122,79.206,5.314
0.111,0.946,0.178,7.385,6.592,1.343,78.597,5.929
0.116,0.961,0.13,7.507,7.019,2.38,78.625,6.402
0.102,0.959,0.179,-2.686,3.662,1.892,78.189,6.605
0.087,0.974,0.191,-2.502,6.653,3.723,78.283,6.097
0.111,0.95,0.175,4.639,10.01,4.517,78.338,6.092
0.068,1.014,0.096,-1.038,23.132,13.367,79.257,5.329
0.015,0.959,0.172,4.883,14.648,-0.366,79.915,4.075
0.005,0.964,0.148,-2.014,-3.174,1.465,80.891,2.892
0.01,0.97,0.187,-8.972,-5.859,1.465,81.108,1.419
0.004,0.978,0.138,-5.798,-13.367,1.038,80.519,0.492
0.014,0.96,0.133,-7.019,-11.047,-2.38,81.074,0.476
0.007,0.958,0.169,5.798,-3.357,-3.052,80.765,0.507
-0.029,0.993,0.102,1.77,-6.226,0.305,82.054,-0.068
-0.04,0.965,0.164,3.662,-4.578,-0.916,81.624,-0.705
0.038,0.964,0.138,3.662,0.305,-0.732,81.587,-0.353
0.029,0.971,0.135,4.15,1.465,-0.549,82.11,-0.028
0.038,0.971,0.151,2.869,-2.38,0.244,81.306,0.943
0.029,0.97,0.163,5.005,-1.038,1.648,81.175,1.946
0.017,0.965,0.167,3.052,1.038,1.648,80.822,1.646
0.017,0.963,0.176,4.822,-0.488,2.136,80.239,1.481
aX,aY,aZ,gX,gY,gZ,Roll,Pitch
0.051,0.956,0.137,6.042,-0.183,0.671,80.381,1.677
0.012,0.969,0.159,-9.033,3.418,-1.282,80.468,1.429
0.02,0.981,0.131,1.709,0.488,-0.61,81.014,1.461
0.029,1.003,0.139,-0.366,-0.183,1.16,81.606,1.615
-0.017,1.02,0.079,0.916,4.944,-2.075,82.677,0.622
-0.017,0.934,0.085,5.615,6.714,-1.77,83.693,0.212
-0.02,0.987,0.12,1.892,6.47,2.441,83.859,-0.36
-0.005,0.886,0.162,23.254,10.62,-0.671,83.278,-0.88
0.097,1.002,0.241,9.888,-1.831,-4.7,80.885,0.814
0.048,0.946,0.174,-3.052,-0.732,-5.127,79.516,1.766
0.041,0.991,0.156,0.488,1.221,-2.441,78.836,2.648
0.076,0.954,0.165,6.47,-1.282,-0.916,78.655,3.777
0.074,0.954,0.193,3.967,2.075,1.16,79.28,3.504
0.086,0.966,0.196,9.094,2.441,-1.038,78.845,4.036
0.08,0.934,0.197,-4.333,-12.634,6.287,77.924,4.665
0.091,0.954,0.208,1.526,1.709,-1.282,77.274,4.869
0.011,0.968,0.175,-1.587,-3.479,-2.075,77.878,3.932
0.021,0.984,0.188,0,-3.418,-6.775,78.311,2.96
0.113,0.94,0.16,3.54,-2.075,-2.197,78.699,3.44
0.071,0.99,0.189,3.113,-0.977,-2.014,79.144,3.13
0.126,0.945,0.185,9.094,-0.671,-2.197,78.358,4.823
0.101,0.911,0.246,4.272,1.404,1.343,76.878,6.086
0.091,0.957,0.191,3.967,0.854,-0.61,76.684,5.724
0.083,0.956,0.205,-1.282,1.099,0.061,76.293,5.937
0.088,0.958,0.193,-2.625,0.854,-0.244,76.465,5.35
0.093,0.961,0.188,1.587,1.16,-0.305,77.445,5.17
0.079,0.966,0.183,3.54,1.648,0.427,77.649,4.994
0.094,0.956,0.203,10.376,4.15,1.282,77.608,5.152
0.146,0.91,0.229,9.216,7.141,2.625,76.635,6.049
0.11,0.955,0.23,3.845,7.263,1.404,75.966,6.298
0.13,0.962,0.208,7.812,10.132,-1.892,75.29,7.041
0.123,0.953,0.219,-9.583,10.864,5.981,74.876,7.475
0.109,0.944,0.233,4.639,16.113,9.277,75.202,6.89
0.1,0.914,0.2,9.216,17.09,0.916,75.48,6.835
0.047,0.961,0.233,-12.024,-2.136,4.944,75.681,5.602
0.019,0.957,0.23,-8.911,-5.249,-2.991,76.054,4.064
0.018,0.988,0.2,-14.282,-7.019,-3.418,76.986,2.695
0.022,0.977,0.161,-0.854,-8.423,3.357,77.921,1.531
aX,aY,aZ,gX,gY,gZ,Roll,Pitch
-0.027,0.966,-0.049,7.568,0.122,0.061,86.679,-1.59
-0.026,0.983,-0.061,2.563,-0.427,-1.282,86.418,-1.548
-0.024,0.982,-0.058,-1.343,-1.77,-4.517,86.393,-1.496
-0.036,1.007,-0.018,17.09,-0.732,-10.315,86.836,-1.639
-0.055,0.994,-0.037,7.69,-4.395,-13.428,86.774,-2.027
0.07,0.969,-0.044,9.949,0.183,-6.226,87.638,-0.647
0.051,0.981,0.001,5.798,-2.869,-1.648,88.513,0.441
0.027,0.966,-0.012,5.676,-0.549,-2.502,88.081,1.374
0.033,0.998,-0.025,-2.258,-2.808,-2.014,87.11,2.648
0.029,0.994,-0.043,0.977,-2.075,-0.732,87.665,2.035
0.071,0.962,-0.032,-2.808,-1.404,0.793,87.158,2.333
0.064,0.962,-0.037,-2.319,-3.479,0.732,86.503,2.869
0.068,0.959,-0.046,5.249,2.258,-0.793,85.866,3.409
-0.065,0.958,-0.28,-10.071,-0.854,-8.911,83.791,2.031
0.06,0.993,-0.051,4.395,4.822,-0.732,83.617,1.86
0.084,0.981,-0.054,3.784,0.183,-0.244,83.332,2.148
0.066,0.993,-0.057,6.409,-1.343,-0.305,83.247,2.112
0.043,0.978,-0.025,3.418,-2.869,-0.488,85.432,3.682
0.104,0.993,-0.053,-1.16,-3.479,-1.526,84.902,4.306
0.09,0.98,-0.036,1.221,-3.113,-1.587,84.963,4.387
0.08,0.973,-0.037,0.427,-0.854,-1.038,84.9,4.605
0.071,0.999,-0.059,-2.197,1.099,-0.366,84.348,4.979
0.044,0.972,-0.041,4.761,-0.488,2.502,85.159,4.141
0.141,0.955,-0.039,7.08,8.789,3.052,84.453,4.917
0.091,0.949,-0.047,6.409,8.484,-0.488,84.206,5.111
0.102,0.962,0,9.766,8.789,3.418,84.069,5.626
0.001,0.951,-0.041,0.244,2.136,0.854,84.639,5.017
0.026,0.989,-0.02,10.132,-0.61,0.305,86.358,3.276
-0.005,0.98,-0.035,2.319,-5.127,1.648,87.689,1.836
-0.003,0.975,-0.011,2.136,-2.441,0.977,88.407,0.276
-0.022,0.99,-0.014,7.568,-0.61,3.235,88.834,-0.066
-0.009,0.981,0,1.77,-1.343,-0.793,88.947,-0.584
-0.007,0.971,-0.001,6.653,-0.366,-0.488,89.277,-0.612
0.036,0.99,-0.013,4.456,1.587,0.61,89.595,-0.032
0.011,0.976,0.007,4.028,0.305,1.587,89.525,0.464
0.02,0.976,0.005,4.7,0.061,0.916,89.109,0.89
0.019,0.98,0.011,4.456,0.549,1.221,88.721,1.271
-0.011,0.981,0.024,1.282,-0.122,3.174,89.107,0.577
-0.086,0.976,0.033,1.587,-2.075,-0.366,88.642,-0.851
-0.058,0.945,0.047,7.812,2.808,-2.991,87.385,-2.001
-0.087,0.984,0.039,3.418,-7.507,2.563,85.872,-3.556
0.006,0.984,0.014,-1.953,-6.897,-5.066,86.17,-3.297
0.018,0.989,-0.039,-11.719,-3.662,-7.141,88.019,-1.765
0.025,0.991,-0.066,-7.935,-5.066,-0.488,89.076,-0.546
aX,aY,aZ,gX,gY,gZ,Roll,Pitch
-0.006,0.977,-0.038,1.16,0.061,-0.305,88.034,0.63
-0.005,0.973,-0.028,5.31,-0.549,-1.16,87.472,0.468
-0.005,0.969,-0.021,2.93,-0.427,-2.441,87.752,0.139
-0.119,0.923,-0.06,15.015,-4.15,-6.287,87.033,-1.996
-0.026,0.98,-0.04,8.24,-3.052,-2.38,86.801,-2.301
-0.016,0.971,0.007,3.357,-1.282,-4.456,87.011,-2.461
-0.038,0.963,-0.023,7.263,-1.953,-2.136,86.58,-2.956
-0.037,0.978,0.001,4.578,0.122,-2.502,88.111,-1.714
0.022,0.985,0.015,5.554,1.526,-2.319,89,-1
0.063,0.989,0.063,-1.77,10.62,-0.122,89.154,0.157
0.058,0.949,-0.014,4.211,12.939,0.916,88.16,1.568
0.003,0.981,-0.015,3.967,9.583,1.343,87.733,2.149
0.003,0.964,0.016,12.207,1.953,0,87.976,1.881
0.124,0.966,0.06,6.897,-10.742,1.221,87.122,2.791
0.087,0.988,0.043,-4.944,-8.301,-1.099,86.474,3.177
0.146,0.973,-0.003,1.648,-4.639,-1.16,84.449,5.281
0.044,0.983,0.009,-1.892,0.977,1.038,83.944,5.841
0.029,0.976,0.004,-0.183,0.732,0.732,85.476,4.456
0.031,0.969,0.005,0.244,0.549,1.892,86.33,3.663
0.067,0.991,0,3.967,3.54,0.916,87.499,2.488
0.031,0.965,0.01,0.732,6.165,1.038,87.676,2.308
0.053,0.984,-0.013,2.258,6.531,2.197,87.348,2.652
0.07,1.006,-0.04,14.893,11.108,1.526,86.749,3.19
0.068,0.949,0.071,5.737,12.146,2.319,86.727,3.246
0.058,0.981,0.041,2.563,7.385,2.991,86.269,3.626
0.029,0.981,0.033,4.517,-2.93,-1.77,86.377,3.278
-0.006,0.969,0.057,2.625,-14.526,-2.38,86.294,2.195
0.04,0.98,0.019,2.563,0.122,0.122,87.175,1.767
0.014,0.998,0.018,2.197,-0.793,3.906,87.836,1.12
-0.028,0.964,0.032,-0.549,-1.77,-0.427,88.122,0.297
-0.02,0.976,0.021,-1.648,-1.099,2.319,88.674,0.093
-0.032,0.981,0.017,-3.967,-2.136,1.709,88.399,-0.956
-0.044,1.003,-0.011,-11.536,-4.517,-0.793,88.012,-1.79
-0.03,0.972,-0.013,1.953,-1.648,2.075,88.173,-1.816
-0.02,0.974,-0.007,-0.122,-0.916,2.319,88.165,-1.824
0.001,1.011,-0.028,-3.601,-2.625,-0.244,88.419,-1.333
-0.01,0.982,-0.036,-6.958,-4.822,-0.366,88.513,-0.852
0.002,0.971,-0.029,-5.188,-2.441,-0.916,88.493,-0.389
-0.023,0.981,-0.057,-6.348,-4.272,-0.122,87.766,-0.429
0.02,0.978,-0.078,6.592,-2.93,4.089,87.052,-0.159
0.02,0.992,-0.1,3.784,-5.31,-7.141,86.116,0.276
0.017,0.967,-0.087,-1.587,-15.686,-7.751,85.255,0.489
aX,aY,aZ,gX,gY,gZ,Roll,Pitch
-0.001,0.966,0.008,-7.141,-1.648,-4.211,86.138,0.812
-0.072,1.024,-0.033,-3.906,-3.601,-3.723,86.883,-0.532
-0.031,0.971,-0.004,12.695,3.479,-7.935,87.886,-1.278
0.078,0.976,-0.009,-0.061,-1.465,-1.587,89.33,-0.389
0.032,0.982,-0.037,12.634,0.122,-1.404,88.795,0.099
0.043,0.964,0.014,0.305,1.343,0.366,88.129,1.794
0.023,0.971,-0.002,7.385,0.671,-1.77,87.358,2.594
0.031,0.975,-0.008,4.089,3.845,-0.183,88.042,1.899
0.033,0.951,-0.009,8.545,-1.343,0.549,88.081,1.918
0.03,0.986,0.015,0.061,17.212,1.343,88.276,1.723
0.047,0.983,0.016,0.977,1.587,0.977,87.923,2.066
0.129,0.995,-0.009,4.211,-0.977,-1.526,86.508,3.486
0.071,0.975,0.039,6.836,-7.568,0.488,85.885,4.016
0.126,0.987,0.02,-3.662,-4.7,-1.038,84.514,5.4
0.108,0.973,0.006,2.319,-4.822,-1.16,83.66,6.287
0.061,0.996,0.008,-0.854,-0.244,-1.099,84.583,5.312
0.045,0.978,0.01,4.456,-0.488,0.427,85.018,4.94
0.042,0.985,0.011,-0.732,0,1.648,86.235,3.728
0.098,0.98,0.007,2.319,6.897,0.549,86.381,3.578
0.048,0.974,0.013,2.38,5.737,2.625,86.538,3.406
0.173,0.98,-0.001,7.751,7.08,-0.488,84.712,5.269
0.092,0.967,0.036,5.432,6.104,3.723,83.933,6.012
0.054,0.963,0.027,0.244,-1.526,1.526,84.489,5.398
-0.01,0.995,0.023,3.601,-8.728,-2.258,85.31,4.521
-0.003,0.983,0.051,-2.441,-2.319,0.427,87.209,1.933
0.002,0.985,0.038,0.732,-2.136,0.122,87.877,0.618
0.02,0.976,0.036,0.977,-1.465,0.793,87.851,0.126
0.02,0.979,0.02,3.784,-1.465,-0.122,87.809,0.566
-0.011,0.975,0.033,-0.305,-0.183,-0.549,88.092,0.453
-0.01,0.976,0.026,1.343,-0.244,0.916,88.299,0.281
-0.008,0.985,0.017,0.916,-1.648,1.343,88.592,-0.125
0.013,1.009,-0.012,-20.691,-6.714,-5.249,89.048,-0.218
-0.012,0.968,0.012,-0.122,-0.549,0.61,89.329,-0.226
-0.019,1.004,-0.047,0.061,-0.366,-2.136,89.446,-0.356
-0.11,0.991,-0.011,-10.864,8.972,8.301,87.994,-1.827
0.008,0.948,-0.097,-25.269,-13.855,-0.183,87.154,-1.936
0.008,0.983,-0.071,2.319,-2.808,-4.7,86.314,-1.645
0.006,0.985,-0.075,1.16,-9.094,-3.357,86.065,-1.293
aX,aY,aZ,gX,gY,gZ,Roll,Pitch
-0.066,0.999,0.018,-0.183,-2.258,-4.272,86.656,-0.647
-0.173,1.031,-0.032,17.029,1.038,-4.944,86.046,-3.221
0.051,0.985,0.067,-0.366,-0.122,-4.7,87.383,-2.598
0.031,1.001,0.055,-3.784,-0.488,2.258,87.294,-2.234
0.037,0.975,0.017,-0.977,-1.648,0.244,88.29,-0.777
0.011,0.949,0.015,6.226,1.648,0.061,87.055,1.899
0.03,1.002,0.038,0.122,6.653,1.831,87.58,1.583
0.054,0.977,0.01,3.723,-5.859,0,87.729,1.934
0.054,0.971,0.042,2.563,17.151,1.465,87.315,2.189
0.021,0.978,0.141,-0.61,6.714,2.258,85.902,2.321
0.104,0.95,0.038,13.794,-0.732,0.183,85.151,3.442
0.09,0.984,0.028,-0.427,-10.071,-1.526,84.604,3.959
0.125,0.97,0.022,2.869,-10.681,-2.441,83.966,5.004
0.113,0.977,0.021,1.221,-4.944,-2.075,83.451,6.352
0.048,0.971,0.031,2.075,0.244,0,84.294,5.507
0.041,0.97,0.032,4.028,-0.549,0.427,84.932,4.822
0.045,0.981,0.028,0.488,0.122,0.977,86.012,3.633
0.052,0.971,0.033,1.099,1.038,1.648,86.698,2.743
0.067,0.985,0.018,3.296,5.31,2.258,86.58,3.005
0.081,0.97,0.033,7.385,7.507,3.357,86.057,3.58
0.104,1.005,0.001,6.409,8.484,3.113,85.418,4.409
0.099,0.965,0.065,1.587,10.437,3.357,84.622,5.101
0.054,0.987,0.059,-3.174,4.883,2.686,84.586,4.903
0.099,0.97,0.036,-5.92,-2.808,1.221,84.333,5.166
0.016,0.993,0.037,3.113,-27.405,-2.075,85.155,3.909
-0.001,0.981,0.018,-2.075,-2.136,-0.549,86.733,2.443
-0.012,0.976,0,-1.282,-0.549,1.221,88.01,1.489
0.004,0.987,-0.008,0.732,-0.183,0.305,89.315,0.108
-0.006,0.976,0.003,3.906,1.953,-0.122,89.718,-0.216
0.021,0.978,-0.014,3.601,-1.648,-0.61,89.708,0.098
-0.024,0.987,-0.007,1.77,-0.549,1.587,89.619,-0.071
-0.03,1.046,-0.058,-31.555,-10.498,-4.272,88.774,-0.563
-0.002,0.962,-0.047,3.723,-0.427,-0.366,88.125,-0.505
-0.033,1.031,-0.043,-3.052,1.526,-5.859,87.458,-1.267
-0.101,0.972,-0.042,5.798,0.122,9.766,86.395,-2.377
0.011,0.967,-0.047,-2.563,2.686,-1.099,86.819,-1.83
0.022,0.985,-0.058,-4.761,2.625,-1.648,86.882,-1.467
0.006,0.962,-0.058,2.625,2.38,-5.005,86.847,-0.911
0.02,0.964,-0.066,-0.732,-2.197,-2.686,86.511,0.884
0.045,0.984,-0.098,1.343,-2.014,-2.258,85.668,1.375
0.027,0.978,-0.072,9.216,2.747,-1.648,85.444,1.445
aX,aY,aZ,gX,gY,gZ,Roll,Pitch
-0.004,0.957,0.034,2.014,-0.061,-1.221,86.749,1.304
-0.339,1.049,0.041,7.568,-2.319,-1.404,85.866,-3.897
-0.026,0.954,0.092,13.611,1.953,-2.563,84.87,-4.944
-0.088,0.98,0.026,20.325,3.052,-6.348,82.846,-6.587
0.008,0.916,0.057,4.761,-1.465,-6.104,82.791,-6.477
-0.01,0.957,0.075,-4.15,1.831,-0.977,85.86,-1.73
-0.025,0.974,0.062,6.714,1.831,-2.441,86.287,-1.708
0.034,1.001,0.107,1.831,3.662,0.061,85.526,0.116
0.031,0.937,0.026,1.038,-1.16,-1.465,85.98,0.455
0.077,0.968,0.065,3.662,12.329,1.038,85.792,1.739
0.071,0.961,0.002,3.784,1.648,1.038,85.663,3.162
0.109,0.942,0.117,3.418,-4.15,-0.122,84.636,4.333
0.127,0.967,0.067,2.747,-11.353,-2.258,83.168,5.717
0.125,0.96,0.083,5.737,-5.676,-1.831,82.413,6.44
0.04,0.959,0.087,3.845,0.122,0.366,82.031,5.975
0.04,0.978,0.071,-0.488,0.854,0.183,83.308,4.907
0.038,0.965,0.078,2.502,-0.183,0.305,84.072,3.594
0.038,0.98,0.069,0.854,0.183,1.465,84.956,2.294
0.041,0.966,0.074,0.732,1.099,2.441,85.129,2.298
0.043,0.965,0.073,0.977,2.136,1.221,85.061,2.347
0.092,0.978,0.055,2.075,6.348,2.075,84.927,3.13
0.05,0.997,0.036,5.798,13.062,5.188,85.202,3.298
0.111,1.022,0.052,-0.488,12.329,4.639,84.715,4.266
0.108,0.941,0.103,-3.296,4.761,5.676,83.67,5.231
0.063,0.976,0.089,-6.104,-16.785,-3.174,83.704,4.818
-0.066,0.963,0.048,-2.258,-5.31,0.427,84.688,3.162
0.018,0.979,0.053,2.563,1.465,1.831,85.31,1.823
-0.003,0.975,0.044,1.038,0.122,-0.549,86.574,0.179
0.004,0.947,-0.004,5.859,-3.235,-5.066,87.809,-0.697
-0.062,0.969,-0.01,1.77,-0.61,1.343,88.631,-0.631
0.017,0.982,0.004,4.822,1.221,1.465,89.187,-0.643
-0.013,0.979,0.056,3.052,0.061,0,88.959,-0.785
-0.068,1.197,0.055,-1.282,8.789,6.165,87.734,-1.736
0.001,1.007,0.022,1.77,11.597,4.089,87.935,-0.849
-0.044,1.018,0.004,-1.953,-7.751,-1.526,87.486,-1.684
-0.046,1.035,0.095,20.996,9.827,15.442,86.829,-2.109
-0.081,0.999,0.032,-2.747,-5.737,18.921,86.777,-2.389
-0.076,0.959,0.029,-29.846,-23.804,-4.761,85.804,-3.515
-0.053,0.977,-0.038,0.244,1.465,-6.042,85.944,-3.679
-0.031,0.987,-0.037,-8.85,-19.226,-2.075,86.48,-3.514
-0.003,0.984,-0.049,-4.333,-17.029,-2.441,87.227,-2.398
aX,aY,aZ,gX,gY,gZ,Roll,Pitch
-0.093,0.99,0.026,7.751,-3.906,-5.737,87.015,-2.625
-0.045,0.957,-0.016,11.475,0.977,-6.836,87.243,-2.525
-0.155,1.014,-0.025,22.705,0.977,-4.395,85.61,-4.292
0.07,0.997,0.049,-3.662,-0.732,-5.798,86.739,-3.225
0.003,0.981,-0.015,-2.502,-4.578,2.258,88.152,-1.845
-0.072,0.952,0.015,2.38,0,-2.563,87.735,-2.239
-0.057,0.986,-0.125,0.549,4.639,-0.183,88.619,-0.827
0.037,0.988,0.032,3.479,9.277,0.305,88.116,-1.313
0.012,0.978,0.012,6.714,17.212,-1.892,88.471,-1.185
0.065,1.011,0.002,19.531,8.118,-0.793,88.593,0.82
0.1,0.993,0.035,10.681,2.441,2.93,86.705,3.085
0.052,0.976,0.082,1.648,-1.587,-0.244,86.19,3.316
0.042,1.058,0.12,-14.282,-9.033,-4.15,85.021,3.667
0.107,0.98,0.041,3.296,-8.606,-2.319,84.174,4.283
0.059,0.968,0.069,5.92,-2.014,-1.648,84.184,3.724
0.029,0.968,0.068,0.916,0.366,0.366,84.538,3.402
0.023,0.96,0.076,4.578,-0.488,-0.671,85.075,3.214
0.028,0.971,0.071,3.235,0.122,0.793,85.341,2.052
0.053,0.974,0.063,1.831,1.16,1.648,85.467,1.952
0.102,0.968,0.062,6.775,7.935,3.54,84.983,3.023
-0.051,0.977,0.078,5.31,11.292,7.812,85.532,1.934
0.059,1.009,0.029,-1.038,8.728,2.869,85.862,2.375
0.051,0.959,0.083,-3.052,5.981,3.967,85.622,2.35
0.069,0.971,0.053,-8.85,3.296,3.174,85.976,1.872
0,0.989,0.045,-1.343,-8.057,0.244,85.978,2.608
-0.08,1.028,0.028,-8.911,-8.484,-1.77,86.913,0.582
-0.02,0.984,0.04,-2.197,-2.502,1.587,87.571,-0.44
0.001,0.982,0.016,2.258,-1.648,-1.77,87.67,-1.421
0,0.985,0.03,2.197,-1.404,-0.916,87.822,-1.43
0.017,0.983,0.036,5.676,1.343,-0.061,88.226,-0.043
0.014,0.971,0.034,4.456,0.793,2.991,88.247,0.457
-0.041,0.972,0.061,4.822,-0.671,2.563,87.627,-0.147
-0.064,0.796,0.124,-5.981,-3.784,0.244,85.914,-1.142
-0.113,1.005,0.175,-15.503,-9.521,-6.958,83.232,-3.1
-0.017,0.956,-0.01,17.029,10.376,3.357,83.534,-3.594
0.006,0.961,0.049,13.123,-0.061,-1.77,84.042,-2.894
-0.023,0.938,0.057,-8.85,-21.362,-1.282,85.417,-2.179
0.005,0.974,0.047,2.991,-8.728,-5.188,87.811,-0.436
-0.004,0.962,0.05,2.258,-6.897,-1.77,86.962,-0.242
aX,aY,aZ,gX,gY,gZ,Roll,Pitch
-0.102,0.959,0.04,15.32,-2.502,-6.836,86.564,-1.86
-0.072,1.017,0.037,6.836,-0.671,-1.465,86.411,-2.538
-0.025,0.943,0.057,11.658,-0.244,-2.441,85.95,-3.007
-0.008,0.955,0.086,0.61,1.892,-3.662,85.531,-3.068
0.027,0.987,0.059,-2.014,0.061,-1.831,86.308,-1.156
-0.021,0.984,0.074,1.221,1.404,-1.587,85.895,-0.42
0.023,0.972,0.064,1.038,1.953,-2.014,85.845,0.286
0.034,0.959,0.031,4.089,6.653,1.526,86.537,0.911
0.12,0.983,0.048,8.118,19.897,3.296,86.089,2.276
0.156,0.96,0.087,11.902,-1.221,3.235,84.048,4.892
0.107,0.933,0.052,5.493,-2.441,-0.427,83.013,6.184
0.105,0.97,0.077,1.648,-5.798,-0.427,81.802,7.202
0.091,0.959,0.075,2.441,-3.723,-0.61,81.922,6.813
0.084,0.967,0.073,3.357,-0.916,-0.977,82.927,5.749
0.029,0.973,0.062,7.263,-0.977,-0.427,83.787,4.547
0.025,0.976,0.094,3.906,-0.366,1.038,84.393,3.362
0.023,0.971,0.093,-0.732,0.305,2.563,84.698,2.367
0.031,0.966,0.082,-0.549,0.977,3.784,84.86,1.586
0.072,0.989,0.058,-2.563,6.226,4.15,84.708,2.213
0,0.961,0.085,-8.484,10.193,6.47,84.957,1.853
0.066,1.029,0.025,1.282,7.812,3.235,85.617,2.442
0.071,0.964,0.068,-3.235,4.15,3.723,85.421,3.026
0.047,0.973,0.06,-0.183,-35.828,-7.385,85.621,2.671
-0.015,0.971,0.007,0.305,-4.456,-1.77,86.617,2.457
-0.005,0.973,0.034,-0.977,-5.188,0,87.12,1.447
-0.02,0.976,0.029,0.183,-2.991,-0.366,88.094,0.099
-0.023,0.974,0.046,1.282,-3.235,-0.732,88.064,-0.925
-0.017,0.983,0.038,3.113,-0.793,0.061,87.636,-0.959
-0.019,0.971,0.028,1.892,0.488,1.831,87.631,-1.16
-0.041,0.983,0.022,1.587,-0.305,2.441,87.555,-1.462
0.017,1.122,-0.064,-17.456,-1.831,-1.404,89.094,-0.843
-0.027,0.947,-0.051,7.019,-4.517,2.747,88.638,-0.985
-0.036,0.977,0.034,2.93,0.244,-2.563,88.504,-1.227
-0.07,0.957,0.01,8.362,-10.437,-1.099,88.06,-1.645
-0.027,0.961,0.022,7.446,-3.662,-0.366,87.618,-2.372
-0.009,0.967,0.028,0.61,-9.033,-5.859,87.486,-2.094
-0.001,0.975,0.008,-12.329,-7.446,-1.465,88.127,-1.579
-0.002,0.985,-0.008,-13.367,-4.883,-1.831,89.066,-0.574
0.001,0.996,-0.031,-4.883,-2.93,-1.892,89.838,-0.157
0.004,0.94,-0.038,-6.226,-6.714,-3.113,88.989,0.025
aX,aY,aZ,gX,gY,gZ,Roll,Pitch
-0.167,1.037,0.007,-3.357,0.183,-2.747,87.431,-2.368
-0.016,0.931,0.025,11.108,0.305,-5.737,87.337,-2.608
-0.041,0.985,-0.056,12.512,2.197,-3.296,86.641,-3.235
-0.03,0.965,0.014,11.658,4.639,-4.883,86.299,-3.699
-0.026,1.068,0.051,-2.258,3.601,-3.479,88.29,-1.638
-0.041,0.993,0,-3.662,2.686,-0.977,88.029,-1.967
0.022,0.993,-0.018,-3.54,0.977,-1.343,88.737,-1.067
0.068,0.975,-0.009,-0.732,0.671,0.549,89.528,0.321
0.093,0.977,0.015,5.249,29.358,-0.671,87.932,2.061
0.07,1.021,-0.039,5.005,4.944,0.427,86.275,3.65
0.064,0.986,-0.011,2.319,-0.977,0.122,85.694,4.256
0.045,0.966,0.025,6.714,-2.319,-0.366,86.063,3.934
0.051,0.987,-0.008,2.686,-5.432,-0.854,86.654,3.311
0.077,0.99,-0.007,2.075,-7.751,-1.892,86.56,3.44
0.109,0.983,0.007,7.568,-3.54,-2.258,85.895,4.097
0.032,0.984,0.009,3.967,-0.61,-0.244,86.099,3.901
0.028,0.96,0.029,2.869,0.244,0.305,86.359,3.597
0.028,0.981,0.017,7.263,-1.404,-1.038,86.966,2.892
0.029,0.985,0.019,2.075,-0.122,0.427,87.967,1.72
0.03,0.967,0.023,-0.488,0.427,1.526,87.866,1.697
0.101,0.979,0,3.479,1.16,2.502,87.105,2.764
0.049,0.953,0.05,5.188,7.751,4.456,86.628,3.089
0.052,0.89,0.078,-2.38,12.451,-1.282,85.805,3.516
0.101,0.939,0.037,3.418,1.953,2.808,84.752,4.609
-0.004,0.974,-0.026,-1.16,-15.991,-0.793,86.312,3.025
-0.022,1.004,-0.021,0.061,-2.625,-1.343,87.828,1.921
-0.05,0.971,0.013,3.113,-8.789,-0.061,89.624,0.374
-0.045,0.98,-0.009,3.174,-2.319,0.122,88.13,-1.76
-0.055,0.98,-0.019,1.892,-2.93,-0.122,87.434,-2.512
-0.024,0.977,0.015,3.052,-0.916,-0.305,87.441,-2.559
0.004,0.98,-0.012,2.38,-0.61,0.671,88.192,-1.769
-0.013,0.981,-0.005,4.517,-1.343,0.977,88.665,-1.297
-0.023,0.984,0.007,3.052,-1.16,0.793,89.18,-0.817
-0.06,0.979,0.018,-0.61,-1.343,1.16,88.653,-1.342
-0.06,1.039,-0.049,-41.626,-15.076,-11.597,87.727,-2.235
-0.011,0.99,-0.086,2.747,0.549,0.916,87.292,-2.203
-0.08,0.942,-0.039,-1.587,-7.507,-0.244,86.209,-3.053
0.02,1.002,-0.122,-6.348,-4.517,1.099,85.362,-1.881
0.001,0.966,-0.11,-7.141,-4.639,1.282,84.681,-1.027
-0.014,0.976,-0.083,7.812,-0.671,-5.066,84.696,-1.072
0.006,0.984,-0.096,6.653,-1.526,-3.052,84.025,0.182
aX,aY,aZ,gX,gY,gZ,Roll,Pitch
-0.004,0.962,-0.024,10.559,0.183,-1.892,85.395,-0.161
-0.198,1.024,-0.006,5.554,-2.625,-2.258,85.713,-3.041
-0.107,0.972,0.013,5.432,-0.061,-4.883,85.306,-4.4
-0.094,0.989,0.007,-1.892,0.61,-1.953,84.171,-5.827
-0.054,0.974,-0.037,0.122,0.61,-2.136,83.463,-6.529
0.012,0.987,0.023,5.859,4.639,-1.831,86.451,-3.548
0.038,1.023,-0.007,-5.859,-0.61,0.793,88.576,-1.41
-0.016,1.028,-0.17,2.502,2.441,-1.282,87.269,-0.291
0.054,0.981,-0.061,6.592,9.644,-1.77,86.71,1.242
0.044,1.008,-0.037,2.136,18.738,1.465,85.761,1.694
0.044,0.969,-0.011,10.376,7.446,2.563,85.613,1.809
0.079,1.001,-0.036,5.188,-0.977,0.671,86.171,3.207
0.116,0.962,-0.022,0.366,-3.479,1.953,85.6,4.118
0.022,0.966,0.015,7.446,-2.563,-0.61,86.076,3.843
0.082,0.992,-0.017,3.906,-1.648,-0.793,85.546,4.367
0.013,0.981,0.007,4.7,-1.038,-0.916,86.574,3.417
0.014,0.995,0.008,6.714,-1.221,0.244,88.077,1.914
0.01,0.969,0.031,11.597,-0.61,-0.977,88.225,1.726
0.061,0.961,0.012,3.174,-0.854,0.916,88.343,1.427
0.019,0.985,0.032,0.488,0.488,1.221,88.069,1.507
0,0.982,0.031,-7.507,4.272,4.761,87.961,1.31
0.039,0.987,0.004,-0.488,5.005,1.953,87.908,1.74
0.009,1,-0.016,5.31,1.404,1.343,88.771,0.978
0.069,0.942,0.063,2.502,-7.874,-5.31,87.902,1.724
0.074,0.968,0.006,-2.075,-15.808,-0.61,87.065,2.817
-0.082,1.005,-0.019,0.122,-4.089,1.831,88.856,1.032
-0.004,0.982,0.007,1.16,-0.854,-2.197,88.81,0.847
0.058,0.975,-0.003,6.958,-4.15,-1.465,89.311,0.678
-0.004,0.969,0.013,1.587,-0.366,-0.793,89.537,-0.463
-0.016,0.98,-0.007,2.38,-3.052,0.122,89.481,0.498
-0.003,0.975,-0.006,4.639,-1.465,0.244,89.494,0.504
0.014,0.977,0.002,7.263,0.61,1.648,89.856,-0.142
-0.066,0.972,0.011,1.038,-1.099,3.479,88.948,-1.052
-0.059,0.987,0.007,1.099,-2.38,0.061,88.308,-1.679
-0.076,0.976,0.029,-2.502,-1.343,-2.014,87.164,-2.741
-0.036,0.978,0.005,-2.625,-0.854,0.366,86.457,-3.458
-0.129,1.022,-0.025,-28.748,-5.127,0.061,85.666,-4.328
-0.003,0.982,-0.032,-0.977,-0.793,-2.869,86.456,-3.529
-0.003,0.974,-0.079,4.15,-1.831,-5.554,86.886,-2.471
0.007,0.979,-0.056,-9.949,-14.16,-6.287,86.663,-1.849
0.007,0.994,-0.056,-2.197,-1.038,-2.197,86.759,0.116
0.027,0.974,-0.061,15.076,4.333,-3.113,86.291,0.561
aX,aY,aZ,gX,gY,gZ,Roll,Pitch
0.156,1.091,0.133,2.808,-7.08,-0.671,79.334,8.094
0.026,0.97,0.045,-0.427,3.418,3.54,82.952,5.03
0.047,0.99,0.034,-0.732,0.366,-0.061,84.153,4.287
0.043,0.978,0.05,1.221,-0.183,-0.122,84.638,3.856
0.042,0.963,0.051,1.587,-0.61,-1.282,86.48,2.317
-0.061,1.001,0.047,2.625,4.395,-1.099,87.149,1.041
0.013,0.991,0.087,3.052,8.789,1.648,86.534,0.543
0.133,0.974,0.049,-1.221,5.798,2.319,86.123,1.86
0.052,0.991,0.05,-1.404,2.747,1.343,86.1,1.983
0.047,0.974,0.047,0.977,3.723,1.038,85.087,3.554
0.023,0.977,0.057,0.732,4.15,1.16,85.24,3.716
0.037,0.98,0.057,-0.244,2.991,1.221,86.143,2.312
-0.025,0.989,0.069,0.549,3.845,1.77,86.428,1.193
-0.136,0.977,0.099,5.737,9.338,1.404,85.629,-1.47
0.251,0.924,0.007,-4.883,-8.545,2.014,86.085,1.883
0.123,0.976,0.108,2.93,7.202,1.587,84.762,3.143
0.043,0.935,0.078,1.343,1.221,1.77,83.93,4.203
0.09,0.948,0.064,1.343,-0.732,1.892,81.447,7.624
0.043,0.961,0.052,2.808,0.427,0.793,83.651,4.459
0.04,0.964,0.054,-0.061,0.854,1.404,85.059,3.247
0.042,0.958,0.057,4.395,0.305,0.671,85.33,3.206
0.042,0.984,0.041,2.319,0.122,0.183,86.097,2.466
0.044,1,0.031,0.916,-0.122,0.244,86.361,2.467
0.001,1.011,0.069,-2.869,1.526,2.869,86.581,1.867
0.117,0.966,0.029,-4.333,-2.747,2.625,86.156,2.957
0.133,0.978,-0.001,-1.648,-2.808,1.526,85.344,4.273
0.065,0.988,-0.014,0.671,-2.014,1.282,85.258,4.584
0.09,0.969,0.027,4.883,6.47,0.427,84.042,5.927
-0.045,0.984,0.071,-0.488,0.305,0.305,86.26,3.537
0.032,0.963,0.021,-2.625,-15.137,0.366,87.418,2.069
0.013,0.984,0.018,-0.366,-8.728,0.244,87.594,1.311
0.003,0.98,0.015,-0.061,-3.052,0.366,88.168,0.043
0.056,0.979,0.011,-0.122,-3.357,0.305,88.193,1.536
0.053,0.974,0.016,0.671,0.488,0.549,87.962,1.84
-0.322,1.009,0.05,-1.343,2.014,1.343,86.688,-3.036
0.031,0.98,0.014,-0.183,0.549,0.793,87.06,-2.631
0.036,0.984,0.009,0.427,0.61,0.732,86.816,-2.917
0.037,0.988,0.003,-1.953,0.427,1.221,86.68,-3.14
0.039,0.977,0.01,0.61,-2.563,-0.671,87.852,2.086
aX,aY,aZ,gX,gY,gZ,Roll,Pitch
0.047,0.997,0.034,4.028,-5.432,0.427,87.558,2.308
0.043,0.993,0,-1.404,4.517,3.906,87.513,2.395
0.047,0.976,0.014,0.793,0.488,0.488,87.317,2.551
0.047,0.979,0.013,1.038,0.671,0.671,87.189,2.673
-0.088,1.072,0.457,4.211,1.587,-0.427,83.113,0.691
-0.02,0.988,0.186,2.747,0.854,-0.183,80.545,-0.189
-0.019,0.986,0.032,1.282,0.977,1.465,80.25,-1.123
0.03,0.981,0.048,1.404,5.432,1.587,79.739,-1.364
0.109,0.969,0.016,2.502,3.113,1.16,85.65,1.456
0.049,0.981,0.035,0,3.601,1.587,86.876,2.469
0.085,0.975,0.018,0.366,1.282,0.854,85.638,4.008
0.016,0.982,0.033,0.61,1.404,1.038,85.909,3.806
0.02,0.978,0.025,-0.305,0,1.221,87.011,2.501
0.021,0.983,0.029,-0.854,-0.488,1.282,87.411,2.078
-0.001,0.98,0.037,0.977,2.136,1.465,88.008,0.816
0.002,0.976,0.001,2.747,3.845,1.16,88.518,0.609
0.059,0.981,0.023,1.16,3.052,1.16,88.235,1.172
0.228,1,-0.049,-3.479,-0.244,0.549,85.817,4.18
0.076,0.976,-0.008,-2.197,2.197,1.953,84.686,5.291
0.118,0.997,0.13,-1.709,-0.61,2.991,82.929,6.934
0.033,0.966,0.024,-1.221,0.671,1.099,83.257,6.595
0.035,0.968,0.027,0.793,0.549,0.916,85.395,3.846
0.037,0.971,0.026,2.869,0.305,0.732,85.526,3.291
0.037,1.002,0.001,-1.77,0.061,0.488,87.615,2.101
0.151,1.041,0.027,-1.709,2.686,2.869,86.081,3.745
0.061,0.975,-0.012,2.38,1.038,1.77,85.852,4.106
0.067,0.976,0.036,0.854,2.014,1.038,85.417,4.522
0.109,0.977,0.008,-1.099,-1.953,0.793,84.359,5.575
-0.031,0.991,0.02,-0.244,-2.991,0.916,86.898,3.007
0.049,0.975,0.011,0.305,-2.747,0.549,86.953,2.838
0.04,0.978,0.004,-0.488,-2.136,0.488,87.479,2.44
0.023,0.976,0.002,1.282,-3.967,0.122,88.69,1.191
0.011,0.983,0.018,-0.366,-2.563,0.671,88.117,1.812
0.066,0.971,-0.006,1.953,0.122,0.183,87.924,2.06
0.052,0.987,0.017,-2.197,-2.075,0.916,87.716,2.239
0.094,0.969,-0.008,0.916,-5.066,0.305,86.704,3.282
-0.057,0.991,0.03,-2.808,-5.005,0.854,87.675,2.273
0.036,0.977,0.006,2.808,-0.244,-0.977,88.06,1.823
0.038,0.991,0,1.16,0.061,-0.427,88.339,1.608
0.037,0.977,0.01,0.854,0.244,0.366,88.97,0.773
0.037,0.976,0.013,-0.122,0.671,1.282,87.81,2.148
0.029,0.999,-0.011,5.066,-1.465,-1.953,87.947,2.046
aX,aY,aZ,gX,gY,gZ,Roll,Pitch
0.083,1.038,-0.081,1.343,-2.808,0,87.151,2.669
0.033,0.985,-0.013,2.136,1.892,2.319,87.077,2.605
0.043,0.975,0.001,2.197,0.366,0.427,86.924,2.69
0.044,0.981,0,1.648,0.305,0.183,86.8,2.911
0.127,1.069,0.215,2.441,-1.221,0,85.443,3.511
0.137,1.031,0.037,1.892,0.488,-0.793,83.919,4.922
-0.026,0.989,0.023,1.953,0.732,0.977,84.469,3.948
0.027,0.987,0.028,1.16,6.775,1.526,84.357,3.706
0.078,0.977,0.013,1.038,5.981,1.587,86.565,3.108
0.078,0.973,0.007,-0.488,1.404,1.16,87.466,2.305
0.05,0.972,0.021,1.587,3.784,1.282,86.434,3.417
0.04,0.975,0.03,0.671,3.113,1.282,86.241,3.609
0.036,0.983,0.012,0.61,2.441,0.916,86.838,2.989
-0.023,0.988,0.01,0.671,2.502,0.977,88.162,1.493
-0.032,0.995,0.048,-2.319,-0.061,1.831,88.511,0.302
0.018,0.97,0.025,0,-2.319,0.916,88.611,-0.009
0.202,0.96,-0.06,-1.404,-9.338,0.488,87.565,2.411
0.182,0.955,0.052,1.892,3.601,1.099,84.471,5.444
0.042,0.974,0.021,6.104,0.183,0.732,83.418,6.557
0.041,1.002,0.011,-0.305,0.244,0.549,83.157,6.833
0.042,1.004,0.005,-0.244,0.122,0,85.358,4.453
0.041,0.977,0.02,-0.61,0.427,0.488,87.461,2.397
0.043,0.988,0.012,-0.366,0.366,0.366,87.498,2.401
0.04,0.995,0.012,0.122,0.183,0.366,87.499,2.396
0.034,0.973,0.024,-4.028,0.916,1.526,87.499,2.296
0.092,0.885,0.005,4.578,-2.625,2.93,86.792,3.11
0.144,0.986,-0.02,2.808,1.16,1.099,85.37,4.62
0.052,0.97,-0.014,-5.066,-4.15,1.648,85.174,4.826
0.052,0.98,0.018,3.235,2.38,0.366,84.915,5.082
0.073,0.969,0.008,0.61,-1.526,0.244,85.299,4.699
0,0.989,0.051,-1.221,-4.944,0.183,87.244,2.597
-0.014,0.981,0.019,-0.732,-7.935,0.427,87.854,1.634
0.026,0.98,0.014,1.343,-3.601,0.244,88.172,1.253
0.027,0.978,0.024,1.16,-0.305,0.488,88.335,0.584
-0.034,0.98,0.027,-2.136,-5.92,0.366,88.775,0.082
-0.094,0.988,0.045,0.61,-5.737,0.488,88.059,-1.09
0.041,0.983,0.013,1.038,0.427,0.732,88.181,-0.872
0.037,0.978,0.02,-0.793,0.488,0.488,88.298,-0.737
0.031,0.96,0.017,-4.333,0.732,1.343,88.592,0.204
0.038,0.987,0.006,-2.258,0.61,0.671,87.71,2.136
aX,aY,aZ,gX,gY,gZ,Roll,Pitch
0.037,0.974,0.001,2.197,-5.737,1.038,87.818,2.084
0.03,0.999,0.02,8.179,10.62,3.296,87.922,1.976
0.044,0.991,0.013,0.122,0.671,0.61,87.775,2.15
0.04,0.995,0.018,1.465,-0.183,-0.732,87.698,2.18
0.035,0.955,-0.029,2.441,-0.488,-1.221,87.811,2.166
0.008,0.973,-0.006,1.282,0.977,-0.488,88.147,1.852
0,0.979,0.036,2.319,5.859,1.282,88.746,1.222
-0.002,0.973,0.032,0.793,9.644,1.709,89.222,0.598
0.131,0.953,0.029,2.319,7.69,1.465,87.567,2.022
0.052,0.976,0.017,-4.15,0,1.465,86.834,2.674
0.034,0.986,0.028,-0.427,0.488,1.099,86.462,3.167
-0.006,0.983,0.028,1.831,2.136,1.221,86.55,3.106
0.02,0.985,0.018,0.488,3.052,1.099,88.018,1.464
-0.004,0.985,0.024,0.671,2.93,1.099,88.432,0.644
0.033,0.986,0.04,-0.854,-1.709,1.648,88.289,0.625
0.192,0.972,-0.066,1.77,3.54,0.366,86.484,3.508
0.185,0.973,0.028,-1.099,1.77,0.305,84.079,5.909
0.044,1.029,0.001,-6.409,0.183,0,83.467,6.533
0.039,0.991,0.021,2.563,-0.061,0.122,83.389,6.607
0.041,1.002,0.015,-0.732,0,0.061,85.493,4.412
0.038,1.003,0.012,-4.089,0.488,0.244,87.602,2.298
0.031,0.967,0.037,-0.549,0.488,0.671,87.524,2.153
0.039,0.972,0.031,0.732,0.549,1.038,87.433,2.163
0.042,0.972,0.03,5.127,0.305,0.916,87.28,2.194
0.045,1.019,-0.005,-6.226,1.343,1.099,87.339,2.29
0.034,0.973,0.042,0.366,1.099,3.479,87.269,2.329
0.1,0.969,0.039,0.916,-0.671,1.648,86.423,3.228
0.047,0.979,0.04,1.526,-0.549,0.977,86.302,3.291
0.022,0.982,0.023,0.488,-4.639,0.549,86.354,2.977
0.002,0.987,0.052,1.953,-0.427,0.305,86.642,2.498
0.013,0.979,0.045,2.197,1.526,0.244,87.38,1.215
0.022,0.99,0.026,-0.366,-3.418,0.366,87.726,0.859
0.127,0.968,-0.007,0.671,-0.854,0.244,87.078,2.391
-0.01,0.991,0.061,2.258,-0.488,0,87.148,2.208
0.069,0.969,0.003,-0.793,-7.08,0.305,86.733,3.037
0.035,0.981,0.06,0.305,-7.568,0.366,86.342,3.231
-0.143,0.988,0.021,-1.099,-2.991,0.549,87.761,-0.721
0.044,0.974,0.027,2.93,0.427,0.793,88.363,0.073
0.042,0.981,0.026,0.793,0.427,0.61,88.009,-0.319
0.039,0.972,0.032,0.916,0.366,0.793,88.421,-0.27
0.041,0.978,0.025,1.648,0.366,0.916,87.079,2.437
0.04,0.984,0.026,-0.183,0.549,0.732,87.144,2.368
0.038,0.98,0.026,0.305,0.549,0.916,87.186,2.313
0.038,0.978,0.025,0.549,0.61,0.854,87.247,2.307
0.033,0.986,0.027,1.892,0.427,-0.122,87.331,2.183
0.041,0.986,0.013,-1.404,0.061,1.343,87.429,2.194
0.042,0.981,0.021,0.793,-3.479,-0.732,87.425,2.244
aX,aY,aZ,gX,gY,gZ,Roll,Pitch
0.04,0.996,0.019,1.892,-2.808,0.549,87.453,2.264
0.031,1.011,0.008,5.249,6.653,3.601,87.604,2.225
0.042,0.982,0.018,1.526,0.732,0.732,87.561,2.241
0.01,1.007,0.037,2.991,-0.122,-0.793,87.873,1.764
0.074,0.964,0.034,3.906,3.479,-0.488,87.33,2.269
-0.029,0.985,0.024,0.793,2.686,0.671,87.833,1.41
-0.01,0.978,0.048,1.587,8.118,2.197,87.817,0.665
0.109,0.982,0.054,1.587,6.531,0.977,86.836,2.129
0.065,0.972,0.028,1.038,4.761,1.16,86.998,1.98
0.052,0.981,0.05,0.427,2.625,1.343,85.879,3.161
0.054,0.979,0.032,-0.671,2.319,0.916,85.262,4.079
0.011,0.982,0.022,-0.366,4.272,1.404,86.713,2.652
-0.012,0.982,0.036,0.122,4.15,1.404,87.446,1.525
-0.015,0.982,0.077,2.625,2.38,1.404,87.501,0.554
0.065,0.968,-0.023,1.16,-0.977,0.305,88.201,0.718
0.172,0.972,0.049,-4.15,-1.77,0.977,86.304,3.082
0.099,0.929,0.03,1.038,-0.732,1.343,84.842,4.767
0.041,0.972,0.028,4.028,0.122,0.916,84.254,5.607
0.043,0.993,0.018,0.854,0.305,0.732,84.429,5.257
0.04,1,0.013,-0.977,0.061,-0.671,86.463,3.288
0.039,0.987,0.022,-0.061,0.122,0.366,87.348,2.375
0.039,1.003,0.013,-2.258,0.305,0.244,87.493,2.318
0.032,0.971,0.029,-2.808,0.916,1.465,87.556,2.174
0.035,0.957,0.037,1.77,0.61,1.465,87.423,2.112
0.046,0.968,0.024,4.028,0.305,1.343,87.316,2.22
0.05,0.975,0.031,-0.854,-1.038,2.747,87.014,2.4
0.08,0.977,0.057,-0.671,2.808,1.77,86.211,3.096
0.009,0.988,0.021,-0.061,-0.793,1.221,86.677,2.697
0.071,0.978,-0.012,5.432,6.775,0.244,86.634,3.056
-0.036,0.988,0.04,-0.488,-4.15,0.427,87.63,1.801
0.023,0.973,0.007,2.014,-2.93,0.122,88.724,0.979
0.071,0.974,0.01,0.061,-4.578,0.305,87.999,1.888
0.028,0.974,0.025,2.014,-3.601,0.183,88.26,1.264
0.004,0.983,0.033,0.916,-1.404,0.305,87.843,1.855
0.065,0.97,0.034,-1.16,-0.732,0.854,87.111,2.468
0.085,0.968,0.018,-0.305,-4.639,0.671,86.874,2.679
0.017,0.981,0.016,-2.808,-7.08,0.977,87.078,2.517
-0.281,0.971,0.071,3.601,0.122,0.427,87.368,-1.667
0.032,0.992,0.003,1.343,0.366,0.183,87.345,-2.142
0.034,0.978,0.018,1.221,0.305,0.244,86.718,-2.88
0.037,0.987,0.013,2.441,0.61,0.916,86.992,-2.59
0.04,0.899,0.022,-0.427,0.671,2.075,87.722,2.115
0.038,0.969,0.018,-2.869,0,0.183,87.543,2.212
0.032,0.959,0.02,-2.686,-3.784,0.854,87.549,2.192
aX,aY,aZ,gX,gY,gZ,Roll,Pitch
0.038,0.955,0.006,2.319,-5.249,0.61,87.553,2.233
-0.01,0.993,-0.012,15.625,13.184,2.441,88.478,1.449
0.041,0.981,0.014,3.845,0.061,-0.244,88.447,1.496
0.047,0.98,0.02,1.831,0.061,-0.244,88.24,1.708
0.153,1.046,0.242,1.282,0.244,-0.61,84.98,3.306
0.014,0.971,0.028,3.967,6.042,-0.549,84.298,3.659
0.025,0.982,0.056,0.854,8.118,2.869,83.97,3.425
0.057,0.989,0.042,1.099,6.409,1.709,83.654,3.56
0.087,0.977,0.033,0.122,5.676,1.038,86.464,2.675
0.094,0.972,0.023,0.549,1.282,1.16,85.553,3.84
0.033,0.981,0.037,0.61,2.197,0.977,85.573,3.96
0.023,0.981,0.031,1.831,4.211,1.221,86.073,3.476
0.021,0.981,0.048,1.648,6.592,1.099,86.771,2.503
0.028,0.978,0.044,1.526,4.028,1.343,87.208,1.536
-0.002,0.983,0.064,2.319,2.197,1.282,87.096,1.026
0.043,0.969,0.024,-3.662,-10.071,1.282,87.055,1.325
0.076,0.969,0.06,2.441,0.977,1.038,86.465,2.143
0.092,0.973,0.047,-0.244,3.662,1.221,85.786,3.088
0.045,0.974,0.04,-2.93,0.854,2.502,85.452,3.782
0.041,0.983,0.035,1.221,0.427,0.977,85.417,3.727
0.037,0.997,0.026,0.061,0.244,0.366,86.203,3.125
0.038,0.99,0.029,-0.061,0.244,0.244,87.006,2.328
0.035,0.988,0.027,-2.075,0.488,0.488,87.248,2.172
0.037,0.958,0.043,2.38,0.427,1.099,87.192,2.14
0.038,0.969,0.036,3.235,0.305,0.549,87.065,2.169
0.039,1.012,0.01,-3.357,0.366,0.366,87.254,2.167
0.072,0.942,0.034,1.587,1.953,3.113,86.718,2.739
0.031,0.991,0.025,-3.601,-0.305,3.662,86.973,2.615
0.184,0.968,0.018,-1.587,-0.122,1.099,85.088,4.748
0.095,0.978,0.01,-0.854,-1.648,0.732,84.236,5.62
0.016,0.973,0.038,4.211,2.441,0,85.055,4.766
0.003,0.977,0.004,-1.648,-7.507,0.366,85.497,4.386
-0.05,0.984,0.01,3.845,-0.671,-0.305,88.691,0.946
0.005,0.983,0.028,-0.427,-5.981,0.366,88.78,-0.371
0.012,0.979,0.003,0.671,-2.075,0.427,89.215,-0.426
0.016,0.988,0.028,0.671,1.038,0.854,88.962,-0.235
0.052,0.973,0.006,-0.61,-1.343,0.732,88.421,1.26
-0.158,0.988,0.022,-0.305,-0.305,0.671,88.584,-1.122
0.028,0.988,0.008,0.793,0.488,0.488,88.707,-0.894
0.032,0.978,0.008,1.343,0.122,0.732,89.068,-0.668
0.032,0.982,0.006,-1.831,0.305,0.305,88.839,-0.961
0.032,0.981,0.01,-0.977,0.793,1.16,88.137,1.799
0.032,0.988,0.002,-1.099,-1.099,1.404,88.106,1.854
0.036,0.977,0,-0.977,-1.953,0.61,88.061,1.921
aX,aY,aZ,gX,gY,gZ,Roll,Pitch
0.044,1.016,-0.004,-0.061,-7.507,-1.587,87.913,2.084
0.028,0.986,-0.01,-0.122,5.554,3.601,87.971,2.022
0.039,0.975,-0.003,1.221,0.427,0.61,87.856,2.129
0.038,0.974,0,2.197,0.366,0.244,87.828,2.158
-0.002,1.012,0.011,3.479,-1.526,-2.075,88.511,1.488
0.01,0.985,0.009,5.005,3.784,-1.404,88.748,1.23
-0.073,0.973,0.011,2.625,1.587,0.549,89.411,-0.388
-0.063,0.969,0.048,3.54,9.583,0.793,87.815,-1.862
0.126,0.987,0.028,0.671,-0.854,1.648,88.59,0
0.081,0.976,-0.01,1.709,0,1.16,88.45,1.046
0.062,0.977,0.023,0.793,2.502,1.221,86.7,3.022
0.013,0.979,0.02,0.793,1.953,1.038,85.783,4.12
0.025,0.98,0.036,1.282,4.578,1.099,87.15,2.661
-0.028,0.986,0.022,1.343,6.104,1.282,88.187,1.057
0.011,0.974,0.03,0.793,3.052,1.526,88.391,0.312
0.257,0.975,-0.046,-5.676,-9.705,0.549,86.072,3.879
0.027,1.022,0,-11.23,1.892,2.441,86.133,3.866
0.037,0.988,0.009,-1.099,0.61,0.671,85.194,4.805
0.032,0.966,0.022,-0.183,0.793,1.16,84.88,5.115
0.033,0.961,0.028,3.113,0.488,1.099,87.929,1.88
0.038,0.993,0.007,4.089,0.244,0.854,87.729,2.051
0.036,0.998,0.005,-0.977,0.183,0.183,87.772,2.034
0.034,0.997,0.006,-0.549,0.305,0.488,87.848,2.043
0.035,1.009,0,-2.808,0.183,0.244,87.927,2.055
0.025,0.948,0.046,2.93,2.747,3.662,87.94,1.882
0.063,0.984,-0.015,0.549,0.305,2.075,87.656,2.279
0.069,0.973,0.051,-1.282,-0.488,1.404,86.94,2.809
0.075,0.978,-0.004,0.671,-2.563,0.671,86.398,3.414
0.117,0.974,0.017,0.366,-4.272,0.244,85.208,4.738
-0.024,0.991,0.026,1.77,-3.54,0.183,86.3,3.459
0.009,0.975,0.02,0.916,-5.432,0.061,87.286,2.576
0.025,0.982,0.002,0.671,-4.883,0.061,87.925,1.849
0.029,0.977,0.011,1.099,-3.235,-0.183,88.974,0.57
0.013,0.985,0.028,0.427,0,0.488,88.569,1.117
0.087,0.974,0.006,0.488,0.061,0.366,87.64,2.254
0.105,0.98,0.012,0.916,0.61,0.488,86.473,3.424
-0.111,0.981,-0.011,0.244,-5.493,0.549,88.537,1.369
0.037,0.995,0,-1.221,-0.061,-1.526,88.286,1.712
0.032,0.977,0.014,-0.793,0.61,0.793,89.066,0.911
0.034,0.978,0.005,0.977,0.488,1.038,89.837,-0.121
0.032,0.984,0.005,-0.732,0.671,0.977,88.009,1.962
0.032,0.979,0.001,-4.15,0.671,1.221,88.069,1.897
0.03,0.981,-0.005,-1.953,-0.427,0.549,88.133,1.865
0.034,0.978,-0.001,2.258,-2.197,0.122,88.135,1.865
0.031,0.982,-0.006,-0.427,-2.502,0.671,88.144,1.849
aX,aY,aZ,gX,gY,gZ,Roll,Pitch
0.043,0.974,0.055,1.038,-2.747,-0.061,87.882,2.021
0.033,0.981,-0.012,0.488,1.77,2.747,87.865,2.067
0.04,0.979,-0.006,3.357,0.61,0.854,87.801,2.153
0.041,0.979,-0.008,0.549,0.305,0.122,87.661,2.301
-0.01,1.015,0.01,3.174,-0.854,-1.282,88.482,1.5
0.129,1.058,0.205,4.883,2.075,-1.099,85.984,2.83
0.003,0.968,-0.001,3.235,1.282,0.122,86.263,2.308
0.016,0.981,0.024,1.77,8.301,1.77,86.082,1.95
0.139,0.976,0.011,0.549,6.47,0.854,84.642,4.11
0.052,0.971,0.023,1.099,5.676,0.916,86.803,3.085
0.162,0.969,0.018,0.122,1.16,1.099,84.484,5.402
-0.164,0.854,-0.238,-0.366,0.854,1.16,85.983,2.867
0.037,0.979,0.021,2.441,1.709,1.038,87.037,1.311
0.026,0.981,0.029,0.244,2.625,0.977,87.279,0.92
0.007,0.982,0.023,1.587,2.808,1.282,87.146,-1.419
-0.008,0.981,0.023,1.953,5.798,1.587,88.335,0.9
-0.052,0.995,0.08,-0.183,1.343,1.892,87.721,-0.394
0.197,0.97,-0.04,-2.502,-3.052,1.038,87.571,2.085
0.258,0.959,0.043,-0.671,3.113,1.465,84.034,5.765
0.037,0.975,0.021,-0.488,0.671,1.16,83.398,6.424
0.039,0.972,0.019,1.648,0.671,1.404,82.177,7.797
0.037,0.974,0.019,1.465,0.488,1.038,84.332,5.464
0.033,0.984,0.012,0.732,0.244,0.671,87.613,2.148
0.033,0.988,0.01,-0.793,0.366,0.488,87.737,2.091
0.033,0.966,0.021,-2.991,0.793,1.038,87.807,2
0.033,0.979,0.013,2.625,0.427,0.916,87.903,1.931
0.04,0.987,0.002,0.916,0.793,1.404,87.862,2.028
0.067,0.963,0.017,-1.648,-0.732,2.808,87.347,2.532
0.076,0.971,0.045,4.333,7.446,0.916,86.643,3.157
0.071,0.971,0.024,-1.465,-0.122,0.671,86.052,3.728
0.058,0.98,-0.002,-0.305,-5.981,0.122,85.81,4.004
0.035,0.967,0.002,1.16,-4.15,-0.183,86.323,3.536
-0.014,0.988,0.02,1.404,0.183,0.244,87.707,2.203
-0.046,0.98,0.022,2.625,-0.183,-0.061,89.21,0.491
0.042,0.986,0.019,15.198,-4.333,0.549,89.043,0.25
0.041,0.985,0.02,-0.244,-3.967,0.427,88.77,0.339
0.029,0.971,0.008,1.099,-3.418,0.122,88.592,0.979
0.08,0.978,0,-1.648,-4.761,0.366,87.11,2.807
0.062,0.97,-0.043,-0.488,-6.592,0.427,86.872,3.121
-0.29,0.993,0.052,1.282,1.282,0.427,88.242,-1.739
0.035,0.98,0.01,0.061,0.427,0.549,88.328,-1.647
0.037,0.977,0.002,-0.488,0.61,0.244,87.703,-2.277
0.037,0.988,0,-1.709,-1.892,0.793,87.206,-2.637
aX,aY,aZ,gX,gY,gZ,Roll,Pitch
0.036,0.961,-0.008,4.517,-4.883,-0.305,87.868,2.131
0.024,1.093,0.038,13.306,15.381,1.587,88.042,1.907
0.041,0.977,0.003,2.014,0.244,0.305,87.984,1.962
0.151,1.039,0.058,0.977,-0.366,-0.488,86.243,3.535
0.002,0.985,0.017,4.7,4.028,-0.61,86.558,3.039
-0.006,0.972,0.02,2.258,3.845,0.916,86.951,2.706
-0.056,0.976,0.04,2.014,12.268,2.197,87.655,1.318
0.116,0.991,0.032,3.113,6.958,1.526,88.216,0.823
0.076,0.987,0.004,-0.977,-1.587,1.343,87.652,1.893
0.02,0.975,0.02,2.319,1.587,0.854,87.346,2.261
0.058,0.986,0.018,0.488,0,0.977,85.951,3.905
0.038,0.974,0.026,1.709,3.601,1.16,87.041,2.788
0.004,0.971,0.016,1.038,3.235,1.038,87.89,1.748
-0.023,0.978,0.057,1.099,0.793,1.16,87.945,1.121
-0.031,0.996,0.039,2.93,3.967,1.282,87.974,-0.184
0.308,0.966,-0.015,-1.343,-2.258,2.014,85.971,3.771
0.221,0.983,-0.009,0.061,1.526,0.488,83.013,6.908
0.037,0.982,0.021,0.061,0.244,0.122,82.223,7.759
0.033,0.967,0.033,2.625,0.122,0.732,81.251,8.737
0.038,0.969,0.029,1.099,0.366,0.977,85.061,4.818
0.034,0.967,0.031,0.061,0.61,0.854,87.328,2.081
0.036,0.965,0.03,0.793,0.671,1.16,87.247,2.074
0.04,0.97,0.027,3.662,0.305,1.038,87.233,2.172
0.037,0.982,0.02,0.854,0.305,0.549,87.33,2.157
0.038,1.003,0.012,-1.587,0.305,0.61,87.455,2.195
0.378,1.122,0.286,-2.38,-4.089,4.578,81.609,6.873
0.068,0.968,0.013,1.099,-1.648,1.892,81.379,7.277
0.047,0.986,0.022,0.977,3.296,1.038,81.26,7.396
0.091,0.982,0.026,-0.488,-3.052,0.305,80.488,8.17
0.028,0.978,-0.001,0.427,-4.028,0.244,86.461,3.426
-0.034,0.985,0.022,2.136,-0.061,0.122,87.827,1.922
0.063,0.983,0.019,1.038,-0.488,0.305,87.629,2.163
0.032,0.984,0.026,-0.671,-2.014,0.305,88.384,1.295
0.02,0.983,0.033,3.662,4.333,-0.183,88.128,1.173
0.041,0.978,0.022,-0.305,-2.258,0.305,87.303,2.262
0.027,0.981,0.027,-0.061,-3.113,0.488,87.649,1.734
0.099,0.986,0.009,-1.16,-5.493,0.427,86.979,2.707
-0.042,0.993,0.044,-3.113,-9.705,0.732,87.658,1.81
0.033,0.904,0.023,4.089,-0.244,-1.16,87.687,1.735
0.033,0.987,0.004,2.808,0.366,0.244,87.824,1.824
0.039,0.98,0.02,1.77,0.427,0.732,88.345,0.946
0.039,0.984,0.016,0.732,0.366,0.488,87.66,2.14
0.042,0.977,0.019,-0.305,0.793,1.16,87.608,2.231
0.037,0.976,0.019,0.305,-0.122,1.404,87.472,2.289
0.04,0.978,0.011,-1.221,-0.854,0.366,87.512,2.304
aX,aY,aZ,gX,gY,gZ,Roll,Pitch
0.041,0.989,0,2.991,-3.296,0.305,87.556,2.34
0.046,1.017,0.019,8.057,10.01,3.418,87.532,2.367
0.043,0.977,0.014,1.465,0.427,0.488,87.46,2.462
0.021,1.024,0.067,-1.648,6.47,-0.61,87.416,2.163
0.145,1.066,0.232,1.465,0.793,0.427,84.16,3.568
-0.018,0.984,0.026,0.366,5.798,0.244,84.52,2.699
-0.043,0.983,0.028,-0.183,10.742,2.747,84.813,1.48
0.029,0.97,0.01,3.662,17.151,1.465,85.465,1.615
0.048,0.981,0.034,1.038,10.925,1.648,88.54,0.23
0.081,0.978,0.016,-1.038,2.441,1.16,87.878,1.678
0.046,0.983,0.022,0,0.732,1.221,86.781,2.986
-0.003,0.982,0.008,0.244,0.061,1.343,87.241,2.504
0.009,0.98,0.027,0.061,0.854,1.221,87.79,1.939
-0.069,0.991,0.025,-0.183,0.122,1.465,88.799,-0.242
0.056,0.982,0.07,-5.493,-11.353,2.625,88.119,-0.108
0.197,0.961,-0.04,4.578,1.282,0.488,86.936,2.823
0.258,0.972,-0.031,-2.502,-1.038,0.732,83.535,6.455
0.03,0.996,-0.006,-1.282,0.366,0.61,82.127,7.872
0.03,0.971,0.003,0.671,0.488,0.793,82.395,7.528
0.025,0.975,0.001,0.366,0.244,0.549,84.968,5.009
0.026,0.984,-0.002,0.732,0.427,0.732,88.378,1.621
0.026,0.992,-0.008,-1.892,0.244,0.183,88.44,1.558
0.025,0.969,0.002,1.709,0.671,1.404,88.51,1.486
0.025,0.97,0,0.366,0.671,1.404,88.499,1.497
0.023,0.982,-0.008,2.014,0.488,0.977,88.538,1.447
0.024,0.989,-0.013,-0.488,0.366,0.549,88.546,1.427
0.248,1.069,0.131,1.648,0.061,1.526,85.17,4.565
0.064,0.984,-0.015,-0.244,-0.854,1.831,84.731,5.092
0.104,0.977,-0.01,2.075,3.662,0.793,83.614,6.247
0.092,0.981,-0.014,-0.488,-2.625,0.854,82.667,7.214
0.012,0.985,0.003,3.296,0.854,-0.061,86.007,3.958
0.016,0.972,-0.029,1.099,-2.625,0.183,86.639,3.28
0.02,0.976,0.008,0.488,-1.099,0.183,87.894,2.054
-0.025,0.985,-0.001,3.357,4.395,-0.122,89.566,0.339
0.076,0.978,-0.011,-0.183,-2.747,0.244,88.637,1.275
0.089,0.976,-0.016,-0.61,-4.272,0.427,87.643,2.339
0.021,0.982,-0.016,0.061,-1.099,0.183,87.566,2.345
-0.06,1.001,0.044,1.831,-1.099,0.854,88.171,1.829
0.026,1.018,-0.016,-5.554,15.015,-1.465,88.908,1.09
0.028,0.962,0.01,4.211,0.366,1.404,89.63,0.206
0.036,0.973,0.002,2.258,0.305,1.038,89.294,0.419
0.033,0.987,0.001,0.061,0.366,0.305,88.221,1.778
0.031,0.971,0.005,0.488,0.549,0.854,88.107,1.877
0.032,0.979,0,-0.366,0.549,1.221,88.064,1.933
0.032,0.971,-0.004,-0.549,-2.014,0.122,88.122,1.878
0.029,0.975,-0.003,0.793,-4.7,-1.343,88.175,1.825
aX,aY,aZ,gX,gY,gZ,Roll,Pitch
0.033,0.977,-0.011,3.54,-5.737,-0.183,88.131,1.851
0.038,0.967,0,14.709,14.404,-2.136,88.044,1.938
0.035,0.979,0.001,2.075,0.244,0.122,88.015,1.975
0.089,1.033,-0.008,2.563,1.038,0.427,87.176,2.811
0.014,0.972,0.029,5.859,4.883,-1.221,87.444,2.537
-0.025,0.978,0.014,2.258,4.272,0.732,88.291,1.629
0.037,0.979,0.018,0,4.395,1.404,88.173,1.662
0.031,0.978,0.017,-0.183,7.08,1.465,88.577,0.839
0.034,0.988,0.01,-0.305,3.479,1.282,88.568,1.134
0.043,0.983,0.016,-0.122,4.517,1.404,87.689,2.127
0.012,0.983,0.009,-2.808,2.014,1.282,88.078,1.759
-0.032,0.977,-0.011,2.258,5.432,1.099,89.08,0.843
-0.026,0.979,0.058,3.845,8.301,1.648,88.929,-0.039
0.134,0.954,-0.045,-3.662,-9.277,0.549,88.701,1.288
0.135,0.981,-0.037,-0.244,-5.554,0.488,86.867,3.093
0.043,1.018,-0.037,-8.118,1.038,1.892,85.761,4.148
0.026,0.982,0.003,2.991,0.732,0.61,84.816,4.904
0.029,0.985,0.001,-0.427,0.671,0.916,86.485,3.367
0.031,0.973,0.003,2.38,0.244,0.671,88.071,1.877
0.031,0.982,0.001,-1.099,0.122,0.671,88.284,1.713
0.026,0.987,-0.004,-0.061,0.549,0.732,88.3,1.7
0.027,0.97,0.004,0.549,0.671,0.977,88.326,1.673
0.035,0.978,-0.005,1.892,0.61,1.526,88.263,1.735
0.097,0.98,-0.031,3.784,-1.343,1.709,87.243,2.705
-0.012,0.999,0.015,5.249,6.958,0.305,87.842,2.143
0.038,0.977,-0.028,1.831,-2.502,0.305,87.59,2.301
0.041,0.979,0.007,0.793,-2.075,0.183,87.562,2.377
-0.064,0.986,0.031,0.305,2.563,0.122,89.636,0.037
0.068,0.984,0.022,1.77,1.465,-0.305,88.705,1.211
-0.084,0.986,0.034,2.197,0.732,0,88.524,-0.563
0.061,0.982,-0.008,-0.977,-5.493,0.488,88.818,-0.263
-0.01,0.982,0.014,0.183,-2.502,0,88.963,0.523
0.085,0.985,-0.006,-1.648,-7.751,0.732,89.089,0.768
0.051,0.968,-0.031,-0.671,-1.648,0.427,87.225,2.737
-0.18,0.987,0.045,1.526,3.052,0.61,89.155,-0.783
0.027,0.977,0.011,-0.977,0.549,0.916,89.632,-0.248
0.03,0.973,0.001,2.197,0.244,0.427,88.873,-1.062
0.031,0.979,0.006,1.953,-0.061,0.305,88.374,-1.341
0.032,0.994,0.001,1.648,0.244,0.061,88.229,1.748
0.031,0.98,0.007,-0.183,0.549,1.16,88.173,1.813
0.028,0.981,0.005,0.244,0.427,0.366,88.184,1.793
0.031,0.971,0.007,0,0.61,0.732,88.185,1.79
0.032,0.99,-0.001,-0.244,0.427,0.61,88.185,1.795
0.028,0.958,0.01,4.761,-0.366,-1.587,88.221,1.749
0.029,0.987,0.006,1.282,-1.465,-0.183,88.213,1.754
0.039,0.962,-0.022,1.526,-1.77,0.183,88.12,1.878
aX,aY,aZ,gX,gY,gZ,Roll,Pitch
