aX,aY,aZ,gX,gY,gZ,Roll,Pitch
0.014,0.967,0.084,26.123,-2.38,2.686,84.984,0.814
0.003,0.974,0.084,-1.343,3.113,0.793,85.034,0.485
0.009,1.004,0.016,-14.893,3.906,-0.244,86.397,0.488
-0.006,0.99,0.028,-0.671,-1.404,0.549,86.903,0.28
0.007,0.984,0.034,1.282,2.258,-1.648,87.636,0.175
0.013,0.983,0.03,2.625,-0.366,-0.793,88.401,0.318
0.018,0.968,0.041,6.226,1.648,-2.625,87.998,0.451
0.015,0.977,0.04,6.348,-0.671,-2.686,87.739,0.763
0.032,0.992,0.036,5.615,4.639,-0.549,87.567,1.13
0.027,0.989,0.045,4.395,4.028,1.465,87.28,1.335
0.013,1.006,0.048,6.042,4.578,-0.671,87.253,1.253
-0.036,1.006,0.071,12.878,3.601,-2.319,87.088,0.5
0.057,0.934,0.099,7.629,9.766,1.831,86.091,0.871
0.082,0.98,0.132,3.052,4.15,0.366,84.647,1.677
0.017,0.978,0.14,1.77,8.24,-2.625,83.305,1.747
0.041,0.992,0.113,4.333,9.399,-1.587,82.344,2.886
0.064,0.981,0.119,5.493,8.972,-0.61,82.129,2.959
0.093,0.965,0.139,5.249,7.08,-0.61,81.951,3.121
0.087,0.978,0.136,-2.136,0.366,3.723,81.56,4.137
0.076,0.973,0.135,3.296,3.052,0.854,80.992,4.66
0.069,0.979,0.137,5.493,3.052,0.061,80.726,4.72
0.086,0.972,0.129,-1.221,0.61,-0.427,80.906,4.621
0.082,0.968,0.127,2.563,0.977,0.61,81.027,4.561
0.054,0.974,0.155,2.319,-1.099,-0.793,80.925,4.239
0.078,0.976,0.144,5.981,-0.244,-0.793,80.768,4.37
0.089,0.971,0.146,1.892,-0.732,-0.549,80.532,4.411
0.08,0.964,0.15,3.174,1.465,-0.732,80.243,4.384
0.046,0.979,0.159,4.272,1.648,-1.282,80.262,4.251
0.081,0.966,0.159,5.432,0.732,1.16,80.024,4.314
0.063,0.971,0.174,4.822,1.343,0.977,79.817,3.933
0.042,0.957,0.167,-0.977,-2.258,2.93,79.774,3.388
0.074,0.966,0.149,-2.808,-3.662,-0.977,79.731,3.82
0.091,0.96,0.134,6.714,-2.625,-1.587,79.997,3.968
0.087,0.97,0.14,1.587,-1.343,-0.061,80.291,4.325
0.072,0.973,0.138,2.563,-2.441,-0.793,80.495,4.735
0.073,0.962,0.164,4.517,0.916,0.549,80.298,4.727
0.101,0.967,0.16,1.099,-2.808,2.136,79.912,4.866
0.08,0.982,0.149,-6.531,-6.165,5.798,79.874,4.749
0.049,0.98,0.148,3.296,2.747,2.258,79.912,4.412
0.048,0.973,0.139,3.174,1.038,0.305,80.426,4.038
0.043,0.969,0.145,3.052,0.977,0.183,80.958,3.193
0.043,0.974,0.14,2.441,1.16,0.366,81.245,2.665
0.042,0.974,0.144,3.723,1.526,0.793,81.317,2.575
0.047,0.974,0.142,2.014,0.977,0.366,81.28,2.551
0.061,0.966,0.141,2.808,0.305,-0.305,81.243,2.818
0.068,0.964,0.146,7.507,2.014,-0.916,81.013,3.18
0.049,0.983,0.153,15.503,4.822,-0.183,80.877,3.271
0.071,0.942,0.198,0.732,-0.793,-0.793,79.925,3.646
0.061,0.959,0.184,0.427,1.282,0.244,79.336,3.647
0.055,0.978,0.185,4.761,1.16,-0.61,78.912,3.441
0.065,0.969,0.188,5.798,2.93,-0.916,78.328,3.68
0.055,0.963,0.205,5.127,4.761,0.305,78.363,3.426
0.044,0.96,0.215,6.714,6.348,0.366,78.014,3.167
0.075,0.963,0.215,-2.075,3.235,0.671,77.48,3.459
0.07,0.944,0.216,7.751,4.578,2.502,77.002,3.547
0.044,0.969,0.208,2.93,3.662,2.258,77.015,3.388
0.054,0.953,0.225,4.395,5.371,-1.038,76.813,3.54
0.036,0.966,0.2,-1.77,-0.305,0.61,77.166,2.986
0.048,0.957,0.215,3.357,3.357,0.183,77.293,2.65
0.05,0.963,0.2,-0.732,-1.587,0.488,77.372,2.743
0.051,0.966,0.19,-0.549,-0.061,0.183,77.9,2.702
0.049,0.953,0.191,5.493,-0.305,1.709,77.942,2.896
0.055,0.97,0.195,1.953,-1.831,-0.183,78.228,2.998
0.061,0.956,0.193,3.174,-1.465,-0.549,78.26,3.157
0.042,0.965,0.176,3.54,-0.732,1.099,78.494,3.029
0.045,0.968,0.197,0.122,0.183,0.061,78.478,2.952
0.066,0.962,0.186,1.709,-0.671,-1.526,78.531,3.118
0.051,0.964,0.193,1.465,-1.282,-0.122,78.598,2.964
0.045,0.997,0.18,2.625,-2.319,0.732,78.623,2.982
0.052,0.963,0.184,1.953,-2.014,-0.427,78.745,3.095
0.039,0.97,0.172,0.244,-1.648,1.953,79.057,2.703
0.04,0.977,0.153,-4.028,-1.953,-1.038,79.677,2.544
0.056,0.964,0.14,-7.874,-9.521,0.549,80.1,2.722
0.015,0.99,0.109,11.047,-3.479,-0.061,81.345,2.166
0.028,0.961,0.162,0.671,-2.441,-0.854,81.508,2.018
0.009,0.976,0.15,-1.648,-2.93,-0.854,81.639,1.571
-0.006,0.981,0.137,-1.77,-0.549,0.427,81.831,0.663
0.034,0.975,0.128,1.038,0.183,1.038,81.514,0.942
0.031,0.968,0.135,3.54,0.122,0.61,81.918,0.975
0.029,0.98,0.137,2.686,-0.732,0.977,82.078,1.263
0.027,0.974,0.135,0.549,0.793,-0.183,82.004,1.753
0.024,0.979,0.134,3.418,-0.061,1.038,81.948,1.609
0.022,0.966,0.151,15.869,-1.77,1.099,81.742,1.475
aX,aY,aZ,gX,gY,gZ,Roll,Pitch
0.017,0.985,0.175,22.827,-1.465,0.244,81.238,1.303
0.025,0.937,0.216,3.052,1.404,0.977,80.01,1.279
0.023,0.93,0.177,-26.428,6.165,-0.061,79.265,1.285
0.031,0.966,0.124,3.296,1.648,0.366,79.636,1.426
0.015,0.976,0.115,3.235,0.977,1.099,80.483,1.389
0.019,0.969,0.109,-0.732,1.526,1.16,82.111,1.303
0.007,0.983,0.104,0.305,4.456,-1.404,83.303,1.056
0.039,0.974,0.081,4.7,2.197,-2.686,83.899,1.171
0.027,0.974,0.118,8.179,2.136,-1.404,83.817,1.348
0.01,0.991,0.102,8.484,5.493,-2.075,83.983,1.211
-0.006,0.969,0.17,9.155,8.179,-4.944,83.05,1.011
0.07,0.969,0.13,4.761,4.578,-0.366,82.268,1.458
0.066,0.969,0.153,5.859,5.066,-0.61,81.641,2.037
0.055,0.962,0.167,9.399,8.24,-2.258,80.499,2.7
0.077,0.974,0.169,-2.625,5.066,-0.854,80.112,3.913
0.095,0.95,0.179,5.493,8.423,0.671,79.275,4.287
0.088,0.963,0.185,3.784,4.395,0.305,78.718,4.596
0.088,0.958,0.196,4.15,2.625,0.427,78.137,5.072
0.08,0.95,0.228,2.014,2.686,-0.061,77.286,5.131
0.09,0.938,0.215,1.16,-1.465,1.038,76.799,5.075
0.103,0.975,0.211,-4.7,-2.197,-0.854,76.41,5.276
0.108,0.95,0.18,-17.883,-1.953,-1.465,76.467,5.576
0.096,0.976,0.17,2.197,-0.122,-1.16,77.197,5.785
0.095,0.97,0.145,5.737,-1.587,1.038,78.15,5.822
0.094,0.95,0.177,5.371,1.16,0.305,78.563,5.745
0.104,0.969,0.181,-0.854,0.427,2.686,78.644,5.662
0.071,0.981,0.168,-0.061,1.099,1.77,78.858,5.299
0.085,0.969,0.165,4.211,-0.061,0.305,78.661,5.152
0.088,0.967,0.171,1.77,0.671,-0.366,78.833,5.031
0.094,0.979,0.159,-1.587,-0.854,0.427,79.198,4.879
0.088,0.974,0.167,2.625,-1.77,-2.258,79.073,5.128
0.119,0.966,0.168,0.427,-0.427,-0.061,78.796,5.621
0.062,0.905,0.189,0.061,1.831,1.038,78.573,5.324
0.088,0.96,0.186,-0.488,1.221,0.854,78.208,5.262
0.091,0.953,0.177,3.967,1.343,-0.061,77.991,5.34
0.091,0.957,0.174,3.967,0.488,0,78.061,4.943
0.09,0.966,0.171,2.136,0.122,-0.366,78.292,5.286
0.089,0.965,0.172,2.625,0,-0.671,78.476,5.302
0.094,0.957,0.183,2.808,-0.061,-0.671,78.396,5.329
0.095,0.963,0.175,2.319,-0.488,0.366,78.379,5.373
0.085,0.962,0.187,1.16,0.183,0.793,78.199,5.309
0.082,0.961,0.177,0.916,0.732,1.099,78.172,5.206
0.089,0.959,0.182,2.686,1.282,0.793,78.218,5.14
0.098,0.95,0.195,2.319,0.916,0.671,77.899,5.198
0.097,0.953,0.191,-0.427,-0.122,-0.122,77.75,5.381
0.102,0.963,0.185,-1.526,-0.122,-0.061,77.519,5.672
0.107,0.952,0.187,1.587,0.183,0.366,77.324,5.932
0.095,0.966,0.169,0.977,-0.122,0,77.712,5.875
0.101,0.962,0.212,2.93,-0.366,-0.122,77.447,5.914
0.093,0.966,0.172,4.456,-1.16,0.061,77.692,5.775
0.091,0.965,0.174,-0.854,2.563,3.662,77.995,5.534
0.068,0.971,0.163,-8.972,-4.211,1.16,78.269,5.135
0.085,0.966,0.151,-3.418,-1.343,0.671,79.163,4.908
0.044,0.97,0.138,-3.357,-4.944,0.061,79.908,4.195
0.075,0.963,0.13,2.075,-1.038,0,80.587,3.968
0.086,0.969,0.144,3.235,3.54,0.122,80.712,4.239
0.058,0.971,0.15,-1.404,-1.038,0.854,80.902,3.847
0.05,0.974,0.129,2.075,-0.183,-0.427,80.989,3.939
0.067,0.967,0.136,3.723,0.977,0.061,80.962,3.826
0.091,0.969,0.143,-8.667,-3.235,1.038,80.945,3.888
0.077,0.978,0.114,-4.7,-1.892,-0.61,81.302,4.149
0.051,0.98,0.152,2.869,0.793,0.854,81.024,4.156
0.035,0.965,0.134,2.563,1.343,0.244,81.243,3.69
0.075,0.979,0.12,-0.793,-0.427,-1.282,81.668,3.453
0.064,0.987,0.112,2.747,-1.404,-1.77,81.787,3.258
0.075,0.978,0.114,2.258,-2.808,-0.549,82.127,3.605
0.06,0.974,0.134,0.671,-2.014,-0.916,81.981,3.952
0.056,0.978,0.139,-0.244,0.854,1.221,81.859,3.681
0.076,0.98,0.128,-4.15,0.305,1.648,81.565,3.86
0.073,0.968,0.13,0.916,-0.977,1.282,81.349,3.839
0.062,0.989,0.123,5.249,-1.465,0.244,81.499,3.867
0.067,0.97,0.138,4.822,-0.305,-0.305,81.428,4.033
0.066,0.968,0.149,10.742,-1.099,0.366,81.205,3.895
aX,aY,aZ,gX,gY,gZ,Roll,Pitch
0.07,0.961,0.173,5.371,-0.427,0.488,80.649,3.856
0.078,0.947,0.157,-13.245,3.418,1.16,80.014,4.127
0.049,0.936,0.1,1.953,1.526,-0.854,80.541,3.902
0.055,0.999,0.072,-3.54,-0.549,1.282,81.694,3.725
0.062,0.978,0.082,1.892,2.563,0.916,82.951,3.604
0.068,0.985,0.071,0.671,2.014,0.366,84.137,3.427
0.06,0.989,0.081,7.08,2.625,-3.845,84.322,3.551
0.071,0.983,0.093,3.54,4.578,-0.488,83.92,3.79
0.037,0.969,0.097,-0.183,9.46,2.869,83.952,3.437
0.011,0.942,0.091,-1.099,10.376,2.502,84.063,2.64
0.052,0.974,0.081,5.554,12.573,1.892,84.102,2.529
0.003,0.909,-0.127,24.109,10.498,5.981,87.354,1.563
0.072,0.981,0.087,6.409,9.338,-0.183,87.12,2.083
0.056,0.989,0.123,0.366,4.272,0.427,82.056,3.685
0.074,0.969,0.119,5.31,1.831,-0.793,82.011,3.822
0.098,0.97,0.118,5.066,1.221,0.305,81.725,4.282
0.09,0.966,0.128,2.625,-1.953,-0.183,81.502,4.629
0.089,0.975,0.135,-1.099,-4.578,1.831,81.05,5.129
0.062,0.966,0.125,2.197,-3.906,-0.366,81.07,4.958
0.08,0.975,0.12,2.625,-2.38,-0.916,81.196,4.689
0.107,0.967,0.116,1.526,-4.028,-0.427,81.205,4.947
0.095,0.978,0.155,5.249,2.136,-0.244,80.936,5.021
0.063,0.965,0.146,6.836,1.16,-0.61,80.668,5.03
0.084,0.964,0.147,3.479,-0.366,2.38,80.289,5.095
0.048,0.972,0.15,4.089,-0.61,-0.427,80.272,4.224
0.079,0.969,0.149,5.676,0.061,-1.099,80.426,4.001
0.096,0.97,0.143,1.343,-0.366,-0.427,80.278,4.473
0.074,0.974,0.15,0.549,0.122,1.099,80.327,4.328
0.042,0.98,0.16,-0.183,-3.052,-2.075,80.27,4.226
0.148,0.955,0.139,5.371,0.854,1.038,79.884,5.244
0.074,0.987,0.139,-1.16,1.16,2.197,80.133,4.907
0.075,0.968,0.146,2.808,1.099,-0.061,80.168,4.921
0.066,0.968,0.148,2.93,0.061,-0.244,80.099,5.285
0.067,0.967,0.148,0.916,0.732,-0.366,80.584,4.088
0.074,0.972,0.137,2.686,0.854,0.244,80.573,4.103
0.073,0.973,0.139,2.686,1.404,-0.366,80.684,4.076
0.086,0.97,0.137,2.38,1.282,-0.854,80.697,4.367
0.077,0.978,0.138,3.174,0.732,-0.61,80.769,4.51
0.131,0.992,0.143,0.671,2.014,-0.549,80.317,5.315
aX,aY,aZ,gX,gY,gZ,Roll,Pitch
0.004,0.986,0.052,27.466,-4.028,-0.977,86.954,0.212
0.008,0.981,0.076,-5.066,3.113,-2.747,86.253,0.348
0.047,1.058,0.055,2.197,1.16,0.183,86.354,1.112
-0.016,1.017,0.018,7.935,-0.183,2.38,87.087,0.606
0.014,0.987,0.055,-0.122,5.005,-1.953,87.014,0.758
0.03,0.979,0.072,2.808,-0.793,-0.732,86.975,1.068
0.035,0.937,0.065,2.014,-2.686,-2.991,86.802,0.932
0.034,0.986,0.087,-0.366,2.747,-4.028,85.574,1.669
0.047,0.965,0.081,4.7,4.089,3.113,85,2.163
0.056,0.992,0.068,3.235,4.272,-2.319,84.888,2.529
0.046,1.003,0.092,13.855,9.338,-5.798,84.557,2.639
-0.001,0.995,0.089,9.155,11.108,-0.977,84.772,2.128
0.081,0.963,0.141,9.705,26.489,2.502,83.796,2.609
0.093,0.959,0.139,-5.249,13.489,-2.014,82.599,3.165
0.055,0.971,0.137,-1.16,10.376,-1.587,81.897,3.32
0.144,0.973,0.115,4.028,2.014,-0.305,80.47,5.449
0.105,0.991,0.064,-9.583,1.038,2.258,81.19,5.77
0.112,0.986,0.095,3.784,-0.366,1.038,81.518,6.012
0.137,0.961,0.066,4.517,0.977,0,81.241,7.215
0.108,0.986,0.11,3.784,-6.653,1.16,81.731,6.684
0.114,0.978,0.104,4.944,-7.446,1.526,81.26,6.828
0.111,0.968,0.087,2.686,-2.502,-0.061,81.301,6.845
0.11,0.967,0.105,4.517,2.625,-0.671,81.248,6.438
0.048,0.986,0.14,7.812,0.549,-0.732,81.546,5.564
0.055,0.979,0.122,-0.671,-3.662,1.282,81.863,4.717
0.108,0.966,0.134,3.784,-0.122,0.732,81.327,4.679
0.108,0.969,0.137,4.761,1.831,1.953,80.951,4.645
0.172,0.946,0.129,0.366,0.305,0.671,79.943,6.499
0.056,0.991,0.127,-3.601,0.122,2.075,79.917,6.489
0.082,0.974,0.127,3.235,0.977,0,80.256,6.096
0.073,0.971,0.136,5.127,0.488,-0.671,80.589,5.579
0.071,0.978,0.139,4.089,0.244,-1.16,81.303,4.085
0.082,0.962,0.142,3.052,0.793,0.061,80.869,4.482
0.088,0.969,0.137,1.404,1.892,1.77,80.688,4.57
0.089,0.975,0.127,7.141,2.502,-1.465,80.69,4.806
0.091,0.956,0.173,6.042,2.319,-0.977,80.082,5.111
0.127,0.965,0.149,1.709,-0.366,0.427,79.652,5.771
0.073,0.963,0.154,-1.221,0.122,1.648,79.549,5.564
0.112,0.989,0.136,-0.427,1.526,1.221,79.289,5.878
0.131,0.943,0.138,1.038,3.418,-1.16,79.315,6.491
0.108,0.98,0.125,-0.366,1.77,3.54,79.795,6.187
0.088,0.962,0.118,-0.305,0.793,2.991,80.064,6.404
0.049,0.998,0.124,-1.526,0.732,2.136,80.785,5.481
0.047,0.978,0.137,7.751,2.258,-2.563,81.547,4.223
0.105,0.977,0.125,-0.732,-1.343,0.244,81.567,4.187
0.086,0.961,0.108,-8.423,-3.906,0.977,81.7,4.165
0.077,0.976,0.083,-3.906,-2.93,0.732,81.94,4.597
0.067,0.98,0.074,-1.892,0.366,3.967,82.48,4.895
0.015,0.979,0.071,6.47,-0.183,-0.427,83.911,3.582
0.039,0.966,0.093,1.526,-5.066,2.075,84.481,2.889
0.057,0.982,0.082,-1.465,-8.423,1.709,84.65,2.594
0.044,0.97,0.069,8.728,-8.667,2.869,84.864,2.261
0.001,1.007,0.076,1.221,-3.357,0.061,84.914,2.045
0.01,0.973,0.082,8.301,0.977,-5.493,85.226,1.62
0,0.961,0.095,2.563,-1.953,1.77,85.22,0.802
0.047,0.972,0.111,5.981,-1.282,3.296,84.61,0.851
0.032,0.968,0.09,0.732,1.648,0.244,84.268,1.315
0.029,1.009,0.092,0.183,0,0.793,84.11,1.591
0.04,0.977,0.101,2.869,0.488,-1.77,83.884,2.151
0.029,0.982,0.105,4.578,-3.296,-0.549,84.065,1.881
0.024,0.998,0.151,27.649,-1.892,-2.563,83.309,1.75
aX,aY,aZ,gX,gY,gZ,Roll,Pitch
0.075,1.004,0.054,19.958,-1.404,-0.122,83.61,2.408
0.076,0.974,0.066,-35.156,9.033,1.343,83.829,2.936
0.089,0.971,0.038,11.047,0.549,3.479,84.129,3.803
0.046,0.993,-0.008,-2.563,0.854,5.676,85.328,4.133
0.037,1,0.02,3.357,5.066,-1.465,86.033,3.591
0.054,0.988,-0.012,3.662,3.54,-5.92,86.687,3.268
0.071,0.974,0.033,4.089,-0.305,-3.479,86.947,3.016
0.088,0.986,0.037,8.057,1.282,-3.784,86.199,3.632
0.089,0.976,0.023,6.104,1.282,-3.235,85.436,4.41
0.04,0.95,-0.004,-10.864,4.456,0.977,85.565,4.236
0.065,0.97,0.023,11.963,14.343,-1.648,85.693,4.148
0.106,0.978,0.061,12.146,18.066,-0.122,85.326,4.423
0.146,0.986,0.058,5.615,13.611,0.366,84.383,5.236
0.116,0.971,0.041,5.92,11.169,-1.099,83.14,6.32
0.152,0.977,0.069,1.77,8.179,-0.793,81.733,7.562
0.109,0.972,0.059,9.949,6.958,0.122,81.688,7.618
0.114,0.97,0.089,0,1.221,2.136,81.875,7.189
0.125,0.985,0.096,1.343,-1.587,4.578,81.392,7.285
0.105,0.98,0.102,4.395,1.953,-0.732,81.683,6.6
0.103,0.975,0.102,0.061,-1.099,3.296,81.37,6.493
0.116,0.968,0.096,-6.531,2.991,0.61,81.284,6.518
0.126,0.983,0.062,-0.366,1.099,-1.221,81.589,6.539
0.133,0.97,0.068,3.906,-0.061,1.221,81.542,6.963
0.1,0.989,0.082,1.526,-2.686,1.77,81.763,6.904
0.097,0.984,0.073,4.211,-5.066,0.977,82.195,6.61
0.101,0.969,0.083,9.033,2.93,-0.854,82.296,6.274
0.082,0.979,0.09,5.005,1.709,-1.16,82.697,5.515
0.1,0.944,0.114,5.005,-2.014,-0.305,82.301,5.575
0.114,0.954,0.1,6.348,-1.587,-0.488,81.798,5.864
0.116,0.966,0.076,9.888,-1.465,-1.953,81.705,6.087
0.148,0.943,0.144,-2.075,-7.08,-7.141,80.384,7.108
0.059,0.994,0.118,-0.244,2.319,3.052,80.895,6.424
0.093,0.973,0.101,3.601,2.625,0.427,81.143,6.085
0.092,0.973,0.098,3.235,0.671,0.366,81.156,5.718
0.088,0.976,0.102,2.258,0.916,0.122,82.234,4.82
0.079,0.984,0.098,2.258,0.793,0.305,82.252,5.12
0.089,0.975,0.102,2.38,1.038,0.366,82.276,5.066
0.09,0.97,0.103,2.93,1.221,3.052,82.233,5.045
0.089,0.973,0.097,3.418,0.427,0.061,82.271,5.058
0.086,0.979,0.103,2.686,0,-0.488,82.142,5.169
0.134,0.974,0.112,3.906,4.822,-1.709,81.595,5.815
0.151,0.947,0.099,3.967,3.479,-1.709,80.949,6.742
0.11,0.972,0.108,0.916,5.676,1.038,80.613,7.054
0.11,0.967,0.098,-0.671,1.892,1.282,80.361,7.429
0.101,0.97,0.083,-0.977,0.671,1.282,80.989,6.958
0.069,0.985,0.079,-0.488,3.052,2.319,82.16,5.697
0.105,1.002,0.054,-1.404,11.719,-0.488,82.793,5.58
0.128,0.96,0.074,6.836,4.395,-1.099,82.791,5.848
0.099,0.969,0.083,5.798,2.075,0.549,82.812,5.819
0.086,0.966,0.087,2.747,0.244,1.099,82.505,6.101
0.072,0.973,0.077,4.517,2.441,-1.343,82.615,5.667
0.063,0.974,0.099,8.362,-0.549,-0.61,83.08,4.688
0.101,0.962,0.097,4.761,-3.784,-1.099,82.899,4.73
0.1,0.975,0.095,-5.127,-4.944,2.747,82.688,4.918
0.097,0.981,0.055,-1.709,-8.179,1.831,82.679,5.27
0.074,0.99,0.068,-1.465,-3.601,0.183,82.89,5.411
0.054,0.982,0.056,0.549,-0.427,-0.244,83.827,4.706
0.052,0.998,0.057,-0.793,0.183,2.808,84.745,3.988
-0.002,0.966,0.06,2.441,0.366,0.61,85.649,2.57
0.074,0.959,0.064,-1.892,0.122,0.488,85.658,2.594
0.061,0.973,0.033,4.395,1.099,0.244,85.837,2.714
0.052,0.979,0.031,0.916,0.183,1.099,86.095,2.734
0.052,0.989,0.008,3.662,-0.366,0.305,85.96,3.512
0.053,0.981,0.024,3.723,-0.61,0.122,86.52,3.188
0.053,0.984,0.04,25.024,-4.272,0.977,86.597,3.056
aX,aY,aZ,gX,gY,gZ,Roll,Pitch
0.024,0.988,0.026,8.85,-0.61,-0.427,86.999,2.642
0.032,0.972,0.047,-9.521,3.662,2.258,86.906,2.362
0.007,0.993,0.034,17.273,2.808,0.671,87.277,1.683
0.042,0.965,0.065,-9.094,0.244,3.906,87.067,1.526
0.035,0.971,0.058,5.371,2.197,2.258,86.569,1.688
0.023,0.987,0.046,2.869,-2.686,0.244,86.649,1.555
0.022,0.985,0.062,1.953,4.395,-2.808,86.181,1.779
0.027,0.974,0.055,7.263,8.85,-2.38,86.406,1.558
0.064,1.006,0.051,16.235,8.85,-1.587,86.323,1.969
0.034,1.01,0.094,3.296,8.179,-3.418,85.675,2.113
0.048,0.969,0.104,-3.723,6.897,0.854,84.947,2.492
0.075,0.981,0.086,2.258,7.446,-0.916,84.226,3.174
0.111,0.976,0.089,6.47,8.301,-0.793,83.347,3.868
0.103,0.963,0.118,6.775,6.165,-1.404,82.388,4.909
0.072,0.976,0.134,13.123,2.319,-1.404,81.849,5.246
0.091,0.967,0.152,6.47,1.099,-1.343,80.935,5.485
0.101,0.948,0.148,-0.122,-1.648,-0.366,80.26,5.367
0.106,0.969,0.146,5.188,-3.113,-1.587,79.897,5.408
0.126,0.965,0.168,1.587,-2.869,-0.916,79.021,6.202
0.14,0.957,0.134,8.423,0.793,-2.808,78.776,6.932
0.116,0.956,0.167,5.554,2.747,-0.549,78.454,7.143
0.131,0.966,0.16,4.333,0.366,-0.488,78.069,7.502
0.128,0.952,0.168,3.662,-0.977,2.563,78.018,7.555
0.122,0.948,0.166,-3.601,-6.714,2.991,77.792,7.305
0.111,0.968,0.182,-0.366,-4.822,-2.197,77.697,7.206
0.172,0.966,0.157,-1.221,-3.052,-1.892,77.379,7.793
0.2,1.079,0.082,-2.197,-1.16,-0.671,77.984,8.592
0.112,0.966,0.146,2.502,1.16,-0.305,78.324,8.42
0.107,0.972,0.155,1.526,0.488,0.549,78.635,8.354
0.121,0.965,0.148,2.258,1.099,0.549,79.232,7.651
0.117,0.964,0.151,1.587,0.732,-0.854,78.973,6.65
0.108,0.972,0.145,-1.831,-0.671,0.061,79.036,6.584
0.113,0.962,0.139,0.427,2.075,0.977,79.133,6.693
0.151,0.965,0.118,2.38,1.465,0.183,79.183,7.137
0.146,0.968,0.141,-0.244,2.441,0.977,79.008,7.559
0.141,0.949,0.113,2.258,-1.221,-2.075,78.933,8.096
0.141,0.957,0.124,-3.113,0,1.221,78.759,8.522
0.099,0.972,0.115,-1.465,2.38,0.549,79.367,7.749
0.09,0.978,0.095,2.869,2.808,0.916,80.436,6.929
0.124,0.972,0.09,-0.916,4.578,3.052,80.898,6.636
0.116,0.99,0.079,2.869,6.592,2.319,81.676,6.227
0.106,0.975,0.081,1.526,5.737,3.845,81.926,6.327
0.105,0.98,0.056,4.333,4.883,1.587,82.093,6.538
0.102,0.969,0.085,2.991,2.625,-0.244,82.392,6.228
0.095,0.976,0.084,2.014,1.16,0.488,82.561,5.948
0.066,0.994,0.081,0,-0.244,2.075,83.035,5.35
0.132,0.979,0.056,5.676,0.366,-2.502,82.726,5.748
0.086,0.972,0.09,-0.427,-0.916,0.549,82.858,5.515
0.094,0.982,0.066,0.793,-0.916,-0.488,83.043,5.495
0.131,0.954,0.066,-0.793,-4.211,-0.122,82.33,6.496
0.074,0.988,0.052,-0.183,-3.235,2.747,83.074,5.642
0.081,0.977,0.059,7.629,4.395,-2.197,83.399,5.566
0.1,0.974,0.047,-2.686,-4.333,0.732,83.465,5.657
0.072,0.962,0.077,-2.258,-4.639,1.831,84.108,4.79
0.035,0.99,0,5.066,-2.197,-1.282,85.012,4.215
0.071,0.97,0.058,4.272,1.953,-1.038,85.125,4.079
0.097,0.983,0.042,-5.981,-2.38,2.075,85.201,4.031
0.038,0.982,0.014,-0.549,-2.93,2.136,86.104,3.52
0.072,0.986,0.01,3.357,-0.671,1.892,85.549,4.066
0.062,0.97,0.022,2.686,0.732,-0.061,85.866,3.93
0.062,0.985,0.014,1.892,0,0.793,86.483,3.41
0.063,0.98,0.017,5.249,0.244,0.061,86.12,3.772
0.062,0.98,0.028,4.944,0.671,0,86.182,3.629
0.068,0.978,0.033,2.441,1.16,0.427,86.045,3.721
0.062,0.988,0.037,10.986,-1.16,-0.305,85.911,3.726
aX,aY,aZ,gX,gY,gZ,Roll,Pitch
0.093,0.995,0.077,10.254,-0.061,-1.038,85.145,4.135
0.053,0.989,0.048,-11.597,4.272,-0.122,85.113,3.99
0.087,1.019,-0.003,-6.409,4.822,-0.977,85.208,4.212
0.048,0.915,0.075,-19.409,-3.479,2.197,85.004,4.085
0.051,0.982,-0.026,7.263,2.686,1.221,86.24,3.497
0.05,0.983,-0.041,4.944,0.854,0.793,86.53,3.469
0.04,0.998,-0.028,6.104,2.808,-2.808,87.192,2.793
0.033,0.993,-0.024,0.671,5.737,-1.892,86.955,2.515
0.086,0.979,-0.025,10.62,7.08,-2.869,86.53,3.024
0.051,1.002,-0.036,30.579,-1.221,3.662,86.567,3.022
0.027,0.998,0.046,-0.061,5.31,0.061,87.1,2.844
0.04,0.994,0.047,2.869,6.836,-2.686,87.02,2.945
0.086,0.971,0.044,6.531,5.615,-0.793,86.717,2.947
0.086,0.985,0.075,4.456,6.042,-2.441,85.37,3.464
0.119,0.969,0.072,2.319,5.493,-1.221,84.057,4.821
0.088,0.976,0.047,-7.202,2.38,1.831,83.456,5.537
0.085,0.997,0.007,-4.639,1.77,2.136,83.782,5.484
0.102,0.978,-0.001,7.385,2.441,-0.427,83.988,5.728
0.093,0.976,0.024,5.92,2.563,1.526,84.547,5.337
0.096,0.98,0.033,6.287,2.197,-1.526,84.471,5.451
0.112,0.976,0.035,6.409,1.282,-1.648,83.975,5.876
0.103,0.976,0.05,5.066,0.732,-0.488,83.75,5.894
0.102,0.98,0.062,1.831,1.282,-1.099,83.425,6.025
0.106,0.973,0.056,6.897,-2.075,-2.075,83.139,6.184
0.135,0.966,0.061,5.249,-2.258,-1.099,82.656,6.532
0.117,0.985,0.064,2.319,0.61,2.319,82.411,6.711
0.117,0.968,0.078,4.395,1.282,-1.404,82.094,6.94
0.11,0.97,0.092,3.845,-0.183,2.258,81.772,7.006
0.117,0.958,0.078,0.183,-2.686,3.357,81.835,6.756
0.115,0.966,0.064,1.099,-6.775,-1.648,81.815,6.761
0.154,0.957,0.072,4.578,-2.869,-1.16,81.383,7.319
0.175,0.995,0.082,0.854,0.671,2.38,80.705,8.204
0.099,0.982,0.067,2.625,1.221,0.244,81.072,7.888
0.102,0.977,0.07,1.587,0.916,0.122,81.228,7.673
0.102,0.978,0.075,2.502,0.671,0.122,81.895,6.892
0.099,0.977,0.08,2.197,0.122,0.305,82.781,5.832
0.096,0.975,0.085,2.991,1.038,-0.244,82.641,5.81
0.1,0.974,0.076,2.258,0.732,0,82.597,5.785
0.099,0.971,0.082,1.953,1.099,-0.183,82.551,5.752
0.128,0.976,0.08,3.174,1.16,-0.244,82.229,6.168
0.116,0.99,0.073,5.432,3.662,0,82.134,6.428
0.152,1.015,0.081,5.005,2.014,-1.831,81.55,7.115
0.123,0.974,0.089,3.113,2.136,0.183,81.216,7.448
0.112,0.982,0.105,-2.136,0.671,0.366,81.217,7.208
0.116,0.988,0.085,-1.709,-0.916,0.427,81.12,7.207
0.118,0.969,0.069,1.709,0.916,-3.052,81.521,6.797
0.136,0.957,0.08,3.235,4.639,0.488,81.411,7.016
0.132,0.952,0.049,-5.066,-0.244,4.211,81.533,7.372
0.09,1.004,0.086,2.014,8.85,-0.549,81.873,6.978
0.104,0.958,0.007,3.235,4.456,-0.427,82.459,6.798
0.114,0.977,0.036,-0.427,-1.77,5.005,83.037,6.456
0.091,0.99,0.048,-4.028,-2.319,4.578,83.654,5.799
0.1,0.977,0.013,5.127,-2.075,-2.319,83.823,5.983
0.074,0.977,0.014,0.793,-1.099,-0.732,84.239,5.524
0.079,0.983,0.031,0.854,-2.197,0.61,84.763,5
0.085,0.945,0.02,6.836,-1.16,1.099,84.894,4.974
0.116,0.969,0.029,1.587,-2.747,1.831,84.604,5.215
0.073,0.983,0.02,-0.305,-2.747,0.732,84.606,5.188
0.071,0.979,0.033,2.502,0.122,-0.366,84.707,5.072
0.072,0.984,0.021,2.258,-0.305,3.357,84.93,4.839
0.062,0.989,0.037,0.61,-0.916,0.671,85.65,4.037
0.061,0.995,0.01,-7.08,-4.639,1.282,85.871,3.861
0.023,0.981,0,1.221,-2.502,1.343,86.679,3.17
0.051,1.008,0,-0.854,-2.502,1.953,87.081,2.837
0.057,0.99,-0.01,-0.977,-0.305,0.122,87.236,2.764
0.062,0.982,-0.008,3.845,-0.793,0.854,87.198,2.79
0.06,0.987,-0.004,3.54,-0.488,-0.854,86.66,3.325
0.064,0.982,-0.001,3.784,0.61,-1.221,86.448,3.536
0.071,0.987,-0.001,11.78,-1.465,-0.427,86.254,3.74
aX,aY,aZ,gX,gY,gZ,Roll,Pitch
-0.097,1.011,-0.029,-0.916,0.854,-4.517,84.263,-5.495
-0.057,0.992,-0.044,7.08,-1.038,-4.822,85.121,-4.406
-0.107,0.971,-0.035,-1.16,-7.751,-7.568,84.556,-5.026
0.018,0.987,-0.04,0.549,-4.15,-5.493,85.874,-3.52
0.057,0.994,-0.055,2.075,-1.16,-2.38,87.148,-1.304
0.027,0.974,-0.041,2.869,0.122,-0.854,87.494,-0.078
0.036,0.983,-0.043,2.625,0.977,-1.526,86.709,2.001
0.039,0.976,-0.036,6.897,1.404,-2.075,86.552,2.307
0.023,0.981,-0.039,1.77,-0.244,-2.136,87.039,1.819
0.024,0.99,-0.024,3.235,-1.526,-2.319,87.285,1.757
0.045,0.988,-0.028,1.099,-0.732,-2.136,87.365,1.884
0.004,0.988,-0.017,8.545,1.343,-2.319,87.931,1.371
0.029,0.994,-0.022,5.066,0.854,-2.441,88.046,1.458
0.065,0.97,-0.005,2.991,0.854,-2.075,87.689,2.067
0.068,0.973,-0.003,6.592,0.793,-2.075,87.495,2.413
0.057,0.973,0.001,4.028,0.366,-1.709,86.772,3.201
0.053,0.972,0.012,3.784,0.671,-1.77,86.422,3.577
0.06,0.974,0.008,2.502,2.014,-1.404,86.49,3.5
0.064,0.983,0.004,0.061,1.16,-0.671,86.543,3.438
0.055,0.975,0.005,3.052,1.709,-1.221,86.558,3.414
0.066,0.978,0.005,1.831,1.038,-0.977,86.399,3.586
0.058,0.984,0.01,0.488,0.427,-1.587,86.431,3.552
0.074,0.977,0.007,0.122,0.549,-0.977,86.286,3.694
0.067,0.976,-0.003,1.343,-0.793,-0.977,86.131,3.861
0.081,0.983,-0.007,-0.366,-0.244,-0.732,85.92,4.079
0.056,0.979,-0.008,1.099,-1.648,-0.916,85.938,4.058
0.074,0.979,-0.016,0.061,-1.892,-0.549,85.904,4.066
0.081,0.97,0.008,4.639,2.014,-0.671,85.707,4.28
0.073,0.983,0.003,-0.916,0.183,-0.061,85.828,4.168
0.072,0.986,-0.011,1.892,1.404,-0.061,85.614,4.38
0.08,0.983,-0.002,0.793,2.258,0.061,85.54,4.46
0.062,0.98,-0.008,1.77,1.038,0.183,85.82,4.172
0.074,0.975,-0.005,2.197,0.732,0.244,85.786,4.197
0.072,0.974,-0.004,2.258,0.366,-0.122,85.778,4.212
0.068,0.979,-0.001,2.258,0.977,0.305,85.946,4.044
0.058,0.982,-0.002,1.465,1.587,-0.671,86.011,3.985
0.056,0.983,-0.01,1.404,1.16,-1.038,86.289,3.702
0.058,0.979,-0.008,2.747,1.16,-1.099,86.488,3.499
0.069,0.982,-0.009,1.648,0.671,-1.038,86.466,3.51
0.05,0.977,-0.002,3.357,0.916,-1.099,86.571,3.403
0.068,0.97,0.001,1.16,2.075,-0.916,86.388,3.603
0.07,0.977,-0.005,-0.366,3.662,-1.465,86.209,3.785
0.073,0.978,-0.009,2.869,2.014,-1.282,86.154,3.839
0.083,0.98,-0.013,-1.892,2.686,-0.244,85.676,4.306
0.085,0.967,-0.005,3.723,2.197,-0.122,85.424,4.55
0.074,0.976,-0.02,2.197,-0.244,0.61,85.336,4.61
0.111,0.985,-0.036,1.282,0.549,0.061,84.719,5.165
0.116,0.974,-0.017,5.493,-1.282,-0.305,84.231,5.654
0.094,0.98,-0.014,2.075,-0.488,0.061,84.094,5.769
0.092,0.963,-0.003,0.488,0.244,0.732,83.869,6.045
0.077,0.978,-0.012,1.221,-0.061,1.526,84.4,5.56
0.073,0.979,-0.013,1.282,-0.061,1.221,85.03,4.931
0.074,0.974,-0.012,1.77,-0.305,1.709,85.313,4.65
0.097,0.974,-0.01,0.854,0.549,2.563,85.247,4.702
0.079,0.975,-0.014,3.296,1.831,3.052,85.208,4.737
0.058,0.989,-0.022,4.272,1.282,2.502,85.412,4.508
0.05,0.978,-0.01,4.456,0.977,0.793,85.773,4.147
0.052,0.983,-0.003,7.568,0.61,0.854,86.43,3.497
0.06,0.96,0.015,4.944,-1.16,0.793,86.76,3.226
0.052,0.987,0.001,-1.526,-0.793,2.136,86.855,3.145
0.053,0.975,0,1.587,-0.977,0.916,86.796,3.199
0.052,0.976,-0.004,0.61,-0.977,0.305,86.801,3.194
0.046,0.973,-0.002,1.892,-1.404,0.061,87.022,2.978
0.041,0.986,-0.006,2.441,-1.953,-0.671,87.186,2.809
0.046,0.972,-0.013,2.502,-3.723,0.183,87.277,2.701
0.025,0.979,-0.007,1.526,-2.808,0.244,87.66,2.308
0.026,0.982,0.002,2.747,-1.709,0.122,87.964,2.009
0.028,0.983,-0.008,1.77,-0.61,-0.122,88.147,1.818
0.038,0.982,-0.002,2.014,-0.366,-0.183,88.285,1.703
0.037,0.988,-0.005,-0.549,-1.038,-0.183,88.123,1.867
0.036,0.977,-0.002,2.075,0.061,0.305,87.966,2.017
0.039,0.983,-0.01,2.319,-0.183,1.038,87.796,2.184
0.027,0.98,-0.013,0.244,-0.305,0.244,87.926,2.024
0.043,0.977,-0.009,2.502,-0.122,0.183,87.825,2.117
0.034,0.983,-0.01,2.502,-0.122,-0.183,87.82,2.092
0.035,0.984,-0.01,1.831,-0.793,-0.122,87.878,2.035
0.046,0.972,0,1.892,-0.244,-0.183,87.652,2.312
0.039,0.98,-0.006,2.197,-0.305,0.183,87.707,2.262
0.04,0.978,-0.005,2.869,0.183,0.61,87.635,2.345
0.049,0.985,-0.009,2.686,0.427,-0.183,87.437,2.546
0.031,0.985,0,0.793,0.183,-0.244,87.657,2.324
0.037,0.988,-0.01,1.77,-0.061,0,87.685,2.29
0.034,0.983,-0.009,1.526,0,0.305,87.765,2.2
0.028,0.979,-0.007,2.441,0.732,0.305,88.069,1.896
0.031,0.979,-0.003,1.587,-0.244,-0.122,88.052,1.902
0.026,0.985,-0.012,3.296,-0.183,-0.427,88.196,1.745
0.04,0.981,0,2.319,0.488,0.61,88.142,1.828
0.035,0.981,-0.011,2.869,-0.427,-0.061,88.028,1.934
0.038,0.971,0.005,1.221,-0.732,0.61,87.951,2.032
0.026,0.974,0.001,1.77,-0.977,0.671,87.966,2.033
0.015,0.989,-0.009,0.916,-0.427,0.366,88.319,1.668
0.016,0.98,-0.005,1.343,0.061,1.16,88.613,1.381
0.021,0.995,-0.011,1.282,0.427,-0.671,88.816,1.126
-0.007,0.974,-0.005,3.296,0.61,0.061,89.211,0.65
0.031,0.987,-0.005,0.549,-0.549,-0.854,89.038,0.881
-0.003,0.988,0.001,-0.916,-2.136,-0.427,89.327,0.608
-0.002,0.975,-0.006,-3.113,1.16,-0.366,89.645,0.283
0.011,0.98,0.052,-5.615,-4.578,2.869,89.182,0.543
-0.001,0.993,-0.028,2.686,-5.066,-2.258,89.72,0.073
-0.033,1.013,-0.013,-10.803,-8.667,4.211,89.63,-0.364
-0.377,0.957,-0.049,0.671,-11.902,-4.272,84.166,-5.807
-0.24,0.973,-0.049,-15.198,-16.052,0.854,80.379,-9.406
-0.201,0.962,-0.074,-17.09,-13.855,2.625,77.405,-12.301
-0.015,0.974,-0.085,1.16,1.77,-0.305,77.278,-12.145
0.022,0.984,-0.102,8.545,2.502,-1.099,82.192,-6.345
0.023,0.976,-0.099,-23.376,-5.554,-4.089,84.157,-2.497
aX,aY,aZ,gX,gY,gZ,Roll,Pitch
-0.027,0.973,-0.012,3.296,-2.319,-2.747,85.633,0.05
0.035,0.969,-0.004,4.883,-0.671,-3.235,86.713,0.777
-0.023,1.01,-0.026,0.427,-0.732,2.686,87.921,0.116
0.011,0.975,-0.026,7.507,2.075,-6.653,88.988,-0.064
0.082,0.973,-0.019,1.831,0.61,-2.014,88.117,1.525
0.056,0.977,-0.012,4.333,0.916,-1.953,87.807,1.824
0.045,0.985,-0.019,3.296,0.366,-2.38,86.964,2.825
0.073,0.996,-0.048,4.7,-2.441,-1.343,86.023,3.712
0.078,0.975,-0.009,4.395,-1.648,-1.465,86.117,3.662
0.07,0.966,0.001,6.531,-0.366,-0.916,85.967,3.879
0.064,0.985,0.004,2.747,-1.221,-0.305,85.765,4.163
0.074,0.986,0.003,2.258,-0.366,0,85.811,4.188
0.071,0.974,0.009,3.662,-0.122,-0.671,85.915,4.079
0.074,0.974,0.003,2.197,-0.793,-0.061,85.855,4.136
0.079,0.98,0.009,4.028,-0.854,-0.61,85.634,4.353
0.069,0.985,0.007,2.319,-0.732,-0.366,85.696,4.284
0.073,0.985,0.015,2.441,-0.916,-0.183,85.666,4.304
0.069,0.974,0.025,3.418,-0.549,-0.305,85.7,4.222
0.08,0.988,0.008,1.709,-0.305,0.305,85.689,4.236
0.071,0.972,0.014,1.404,0.916,-0.122,85.633,4.272
0.063,0.974,0.014,2.686,0.977,0.366,85.762,4.143
0.062,0.981,0.019,2.563,0.977,-0.366,85.889,4.032
0.061,0.974,0.007,2.258,0.183,0.122,86.146,3.77
0.064,0.981,0.008,3.906,0.549,-0.793,86.267,3.665
0.064,0.985,0.014,1.709,-0.244,0.061,86.27,3.664
0.054,0.973,0.024,2.014,0.122,-0.427,86.349,3.566
0.071,0.978,0.015,2.747,0.366,0.122,86.197,3.697
0.06,0.981,0.025,0.977,1.648,0,86.188,3.638
0.061,0.97,0.019,3.54,1.709,-0.183,86.198,3.604
0.06,0.975,0.015,2.258,1.282,0,86.166,3.68
0.065,0.971,0.024,1.404,2.991,-0.183,86.2,3.603
0.069,0.981,0.018,2.502,2.136,-0.122,86.105,3.733
0.069,0.984,0.014,1.404,2.014,-0.305,86.016,3.845
0.062,0.973,0.019,2.258,1.587,-0.671,85.958,3.887
0.06,0.977,0.015,0,1.709,0.122,86.067,3.809
0.066,0.98,0.008,3.54,0.61,0.427,86.141,3.769
0.07,0.974,0.018,1.282,0.916,-0.488,86.11,3.788
0.063,0.98,0.015,2.197,1.892,-0.061,86.121,3.792
0.066,0.973,0.015,1.099,1.038,0.61,86.028,3.888
0.08,0.989,0.009,1.221,0.732,0.488,85.841,4.075
0.07,0.981,0.011,2.319,0.061,-0.061,85.872,4.063
0.071,0.979,0.016,2.014,-0.366,-0.061,85.76,4.175
0.073,0.979,0.016,1.587,-0.366,-0.061,85.67,4.263
0.068,0.97,0.017,2.502,-0.488,0.183,85.804,4.105
0.077,0.976,0.013,3.601,-0.854,-0.183,85.683,4.223
0.063,0.982,0.013,1.587,-0.244,0.183,85.798,4.112
0.063,0.981,0.013,1.526,-0.366,0.305,85.945,3.971
0.062,0.978,0.012,1.587,-0.549,0.549,86.038,3.888
0.061,0.976,0.011,1.282,-0.183,0.671,86.28,3.647
0.082,0.982,0.002,3.113,-0.916,0.061,86.043,3.917
0.08,0.979,0.011,2.563,-0.427,-0.61,85.806,4.16
0.062,0.974,0.019,3.54,-0.305,0.366,85.8,4.152
0.061,0.98,0.018,2.93,-0.427,0.732,85.786,4.151
0.055,0.975,0.02,0.854,-0.183,1.404,86.106,3.764
0.051,0.983,0.013,-0.732,0.305,2.197,86.51,3.339
0.057,0.992,0.002,1.831,0.183,2.502,86.645,3.266
0.057,0.981,0.009,4.517,2.808,2.563,86.731,3.205
0.035,0.98,0.01,4.395,3.174,3.052,87.054,2.903
0.039,0.979,0.02,7.019,3.113,1.648,87.206,2.728
0.025,0.973,0.031,4.211,1.648,-0.122,87.507,2.272
0.038,0.973,0.035,1.587,1.526,0.183,87.549,2.007
0.055,0.975,0.027,2.747,2.075,0.916,87.164,2.304
0.034,0.982,0.024,1.587,1.16,0.366,87.183,2.233
0.03,0.981,0.026,1.282,0.671,0.366,87.172,2.296
0.037,0.973,0.032,1.648,-0.244,-0.183,87.21,2.281
0.032,0.981,0.021,1.831,0,0.061,87.527,1.95
0.001,0.972,0.031,2.075,-1.099,-0.183,87.808,1.47
0.035,0.978,0.028,1.526,-0.61,-0.122,87.747,1.537
0.035,0.973,0.03,3.54,-0.977,-0.61,87.788,1.504
0.025,0.979,0.026,2.93,-1.709,-0.366,87.808,1.397
0.037,0.978,0.027,2.991,-1.282,-0.427,87.484,1.921
0.041,0.972,0.076,5.371,-12.207,-1.465,86.914,2.014
0.037,0.975,0.038,2.869,-0.916,-0.427,86.81,2.038
0.015,0.981,0.039,1.099,-0.732,-1.038,86.746,1.888
0.067,0.969,0.046,2.93,0.671,-0.122,86.247,2.341
0.033,0.976,0.039,0.854,0.366,0,86.728,2.233
0.037,0.979,0.041,2.93,-0.366,-0.183,86.707,2.23
0.023,0.985,0.044,1.892,-1.038,0.305,86.579,2.346
0.05,0.966,0.049,2.319,0.488,1.038,86.71,2.096
0.052,0.979,0.038,2.625,0.244,-0.305,86.55,2.359
0.036,0.974,0.046,0.671,-0.366,0,86.495,2.354
0.033,0.976,0.025,2.441,-0.61,0,86.581,2.505
0.037,0.974,0.044,1.343,-0.244,0.061,86.776,2.312
0.03,0.969,0.042,2.686,1.343,-0.61,86.946,1.999
0.019,0.984,0.023,-0.671,-0.488,0.427,87.376,1.745
0.031,0.972,0.029,1.038,0.122,0.61,87.342,1.724
0.014,0.984,0.032,0.061,0.671,0.61,87.688,1.38
0.019,0.989,0.031,0.916,0.671,0.61,87.923,1.221
0.025,0.98,0.022,3.174,1.038,-0.488,87.887,1.298
0.028,0.981,0.024,-0.671,-0.977,0.671,87.983,1.251
0.013,0.975,0.026,1.16,0.183,0.122,88.064,1.243
0.027,0.983,0.018,2.136,0.061,0.305,88.12,1.354
0.014,0.984,0.009,3.906,-0.549,-0.366,88.358,1.205
0.032,0.984,0.022,2.747,-0.549,-0.671,88.337,1.257
0.015,0.976,0.02,-1.343,-1.831,1.221,88.371,1.284
0.002,0.978,0.01,3.235,-2.075,0.916,88.72,0.929
0.051,0.996,0.058,0.854,-4.395,0.427,87.837,1.464
0.016,0.98,0.009,3.906,0.244,2.136,88.122,1.24
0.046,1.003,0.025,-2.502,0.732,0.671,87.757,1.682
0.006,0.963,0.027,0.671,14.221,-1.404,87.535,1.748
0.008,0.964,0.03,-3.967,12.695,1.77,88.248,1.132
0.006,0.988,-0.017,-0.671,-3.113,-0.732,88.631,0.985
-0.022,0.973,0.023,3.967,-4.395,-5.127,89.081,-0.018
-0.03,0.977,-0.011,-1.953,-9.949,0,89.349,-0.548
0.16,1.008,0.024,-3.906,-7.08,-2.258,88.318,1.66
-0.172,0.981,-0.032,-7.751,-10.803,-5.127,89.065,-0.934
0.021,1.003,-0.048,-11.414,-4.395,4.333,88.983,-0.308
0.042,0.98,-0.109,-23.804,-13,-4.089,87.519,0.73
aX,aY,aZ,gX,gY,gZ,Roll,Pitch
0.023,0.985,-0.054,1.77,-1.465,-1.709,86.271,-1.246
-0.018,0.989,-0.052,5.92,-1.953,-3.052,86.081,0.989
0.072,0.979,-0.044,4.883,-1.648,-2.808,85.852,1.747
0.054,0.977,-0.013,0.977,1.221,0.977,86.946,1.918
0.009,0.981,-0.036,2.808,1.831,-1.404,87.283,1.712
0.017,0.976,-0.013,4.333,2.197,-2.136,87.286,2.227
0.043,0.982,-0.027,3.906,1.465,-2.197,87.784,1.792
0.05,0.984,-0.021,3.723,-0.366,-1.465,87.762,1.736
0.064,0.971,-0.022,4.395,0,-2.563,87.179,2.541
0.049,0.979,0,4.578,-0.122,-1.587,86.829,2.999
0.022,0.971,-0.008,5.066,0.183,-1.77,87.194,2.704
0.066,0.985,-0.007,1.465,1.709,0,87.021,2.93
0.051,0.985,-0.013,1.892,0.427,-1.038,87.238,2.733
0.047,0.981,-0.022,1.953,0.488,-0.916,87.192,2.714
0.078,0.969,-0.018,5.92,0.732,-0.549,86.365,3.529
0.04,0.984,-0.001,3.54,0.061,-0.122,86.74,3.162
0.068,0.969,0,4.761,0.061,-0.244,86.518,3.429
0.061,0.969,0.007,3.967,0.122,-0.427,86.357,3.639
0.057,0.984,0,2.808,0.671,-0.122,86.68,3.319
0.061,0.977,0.001,2.441,0.61,0,86.378,3.62
0.068,0.972,0,2.686,0.916,-0.061,86.394,3.604
0.061,0.974,0.008,3.052,0.732,-0.183,86.404,3.594
0.05,0.981,0.001,3.906,-0.549,-0.183,86.495,3.502
0.06,0.977,0.003,3.601,0.122,0,86.495,3.5
0.064,0.977,0.007,2.441,-0.244,-0.488,86.543,3.446
0.061,0.974,0.011,3.784,0.244,-0.427,86.529,3.455
0.055,0.978,0.014,3.479,0.488,-0.61,86.442,3.521
0.059,0.977,0.015,2.197,0.671,-0.793,86.437,3.497
0.065,0.975,0.015,3.479,0.916,-0.793,86.394,3.515
0.061,0.983,0.014,1.526,1.404,-0.732,86.393,3.507
0.059,0.974,0.018,0.793,2.014,-0.488,86.307,3.58
0.061,0.972,0.015,1.77,2.136,-0.732,86.267,3.622
0.062,0.989,0.007,1.343,1.953,-0.488,86.345,3.57
0.065,0.98,0.009,1.77,2.258,-0.671,86.296,3.633
0.067,0.985,0.002,1.404,1.892,-1.038,86.229,3.739
0.062,0.975,0.01,1.77,1.77,-1.038,86.23,3.746
0.059,0.981,0.001,1.099,2.258,-0.732,86.281,3.705
0.069,0.972,0.007,3.418,0.732,-0.488,86.22,3.769
0.067,0.969,0.003,3.479,0.183,-0.183,86.216,3.772
0.072,0.974,0.004,4.15,0.244,-0.244,86.076,3.919
0.069,0.978,0.011,1.831,1.282,0.183,85.918,4.067
0.065,0.981,0.006,2.258,1.282,0,85.992,3.994
0.064,0.976,0.006,2.808,1.038,-0.122,86.03,3.951
0.062,0.973,0.01,3.845,1.221,-0.183,86.166,3.803
0.071,0.978,0.01,2.93,1.221,-0.244,86.141,3.83
0.072,0.966,0.014,0.793,1.343,-0.122,86.008,3.948
0.074,0.969,0.01,2.686,1.221,0.366,85.85,4.1
0.063,0.96,0.01,1.526,1.099,0.183,85.824,4.126
0.064,0.968,0.013,1.221,1.343,0.732,85.913,4.029
0.087,0.965,0.004,1.526,0.488,-0.305,85.708,4.258
0.091,0.972,0.005,3.113,-0.488,-1.038,85.475,4.501
0.071,0.958,0.015,2.747,-0.366,0.061,85.345,4.624
0.068,0.981,-0.004,1.221,0.244,2.563,85.315,4.676
0.051,0.992,0.009,-7.874,2.747,5.676,85.871,4.113
0.058,0.963,-0.003,4.639,0.427,2.747,86.352,3.64
0.072,0.979,-0.011,-0.61,2.563,4.883,86.359,3.638
0.026,0.957,-0.007,2.808,1.038,3.479,86.951,3.044
0.018,0.984,-0.01,6.165,0.366,0.977,87.4,2.559
0.033,0.982,-0.008,1.892,-0.122,0.854,87.754,2.184
0.052,0.965,0.002,3.418,0,0.061,88.077,1.892
0.05,0.984,-0.003,-0.366,-0.854,0.183,87.761,2.221
0.047,0.969,-0.002,2.258,-2.014,-0.244,87.333,2.661
0.032,0.978,0.004,2.319,-3.113,-0.122,87.343,2.657
0.018,0.98,0.001,2.563,-3.784,-0.061,87.839,2.161
0.013,0.98,-0.006,0.793,-1.343,-0.427,88.367,1.632
0.03,0.978,0.001,4.578,-0.366,0.183,88.623,1.377
0.03,0.992,-0.004,0.916,-0.244,0.488,88.657,1.338
0.033,0.971,0.001,0.427,0,0,88.444,1.552
0.032,0.975,0.001,1.343,-0.61,1.282,88.177,1.823
0.007,0.97,-0.002,1.526,-0.122,0.366,88.506,1.492
0.072,0.952,-0.011,3.174,0.732,0.916,87.865,2.129
0.015,0.973,0.002,-2.38,-0.977,1.465,88.137,1.857
0.021,0.983,-0.018,-0.122,0.977,0.732,88.246,1.7
0.015,0.976,-0.019,2.319,1.099,-0.244,88.06,1.818
0.01,0.986,-0.027,1.038,-0.061,0.122,88.733,0.887
0.026,0.985,-0.017,2.991,0.122,-0.793,88.419,1.051
0.014,0.988,-0.014,1.77,0.183,-0.305,88.532,0.947
0.021,0.981,-0.021,2.014,-0.305,0.061,88.461,1.024
0.023,0.984,-0.018,2.014,-1.16,-0.122,88.414,1.218
0.038,0.972,-0.02,3.906,-1.953,0.854,88.253,1.391
0.032,0.984,-0.01,2.014,0.305,0.549,88.063,1.658
0.015,0.981,-0.023,4.028,-0.061,-0.549,88.121,1.569
0.005,0.98,-0.01,1.587,-0.061,0.305,88.396,1.308
0.021,0.973,-0.015,3.54,0.244,0.122,88.644,1.058
0.023,0.977,-0.011,2.502,0.366,-0.305,88.74,0.919
0.016,0.988,-0.021,1.709,-0.122,-0.061,88.751,0.934
0.023,0.99,-0.02,2.136,-0.122,-0.244,88.456,1.196
0.022,0.987,-0.023,2.747,0.305,-0.488,88.363,1.217
0.012,0.981,-0.008,1.404,0.488,-0.854,88.508,1.058
0.018,0.973,0,0.305,-0.244,0.183,88.667,1.096
0.025,0.981,-0.017,0.977,-1.099,-0.183,88.665,1.128
-0.008,0.991,-0.024,1.404,0.183,0.732,88.997,0.684
0.021,0.972,-0.004,2.197,-0.122,0.427,88.939,0.821
0.018,0.967,-0.008,3.906,-0.671,0.366,88.871,0.821
0.022,0.978,-0.008,0.732,-1.221,0.427,88.997,0.773
0.016,0.987,-0.016,2.014,-0.977,0.671,88.765,1.123
0.018,0.989,-0.016,0.793,-1.16,-0.305,88.732,1.066
0.008,0.987,-0.019,2.625,-0.305,0.244,88.748,0.921
-0.002,0.966,-0.041,3.174,0.183,0.732,88.545,0.58
-0.017,0.986,-0.031,3.479,-1.526,-1.648,88.441,0.103
0.026,0.992,-0.019,-2.869,-2.869,-0.061,88.386,0.221
0.004,0.993,-0.037,5.371,0.305,-1.526,88.127,0.162
0.004,0.989,-0.031,6.653,-1.404,-0.366,88.276,0.249
-0.008,0.965,-0.004,2.747,-2.258,-0.916,88.626,0.378
0.046,0.987,-0.022,-3.113,-5.615,2.93,88.475,0.676
0.352,0.98,-0.025,-2.38,0.793,1.526,84.135,5.744
0.015,0.966,-0.033,5.127,-0.244,-3.784,83.941,5.933
0.011,0.979,-0.045,-1.953,-6.47,-3.54,83.543,6.192
0.049,1.005,-0.073,6.042,4.272,-0.916,83.293,6.199
aX,aY,aZ,gX,gY,gZ,Roll,Pitch
-0.049,0.997,0,3.052,2.075,-1.77,87.777,0.379
0,0.99,-0.018,3.906,1.16,-2.991,88.036,0.16
0.048,0.963,0.009,-0.244,1.404,-2.808,88.627,0.7
0.054,0.976,0.006,1.221,1.953,-2.075,89.216,0.784
0.059,0.981,0,1.831,1.099,-2.075,87.629,2.37
0.036,0.984,-0.005,1.831,-0.244,-0.671,87.091,2.905
0.051,0.976,-0.007,2.563,-0.183,-0.61,87.064,2.935
0.057,0.985,0.007,1.709,-0.61,-1.648,87.032,2.967
0.053,0.98,-0.008,2.014,0.061,-0.061,87.116,2.877
0.055,0.981,-0.002,1.648,0.488,-0.244,86.846,3.151
0.054,0.976,-0.001,1.587,0.183,0.183,86.813,3.187
0.044,0.979,-0.006,2.319,-0.244,-0.244,86.986,3.005
0.063,0.988,-0.009,1.526,-0.061,0.305,86.847,3.143
0.048,0.978,0.007,1.648,0.549,-0.305,86.961,3.037
0.057,0.98,-0.007,2.625,0.61,-0.671,86.915,3.078
0.048,0.982,-0.01,2.93,-0.061,-1.221,86.848,3.14
0.051,0.975,-0.003,2.686,0.61,-0.916,87.02,2.974
0.064,0.974,0.006,2.075,0.549,0.183,86.78,3.214
0.061,0.979,0.002,3.357,1.282,-0.366,86.716,3.283
0.067,0.984,0.001,2.502,1.831,-0.305,86.444,3.555
0.065,0.98,-0.001,2.625,1.465,-0.488,86.246,3.752
0.056,0.975,-0.003,3.235,0.427,0.122,86.37,3.63
0.053,0.98,0.013,2.38,-0.061,-0.244,86.484,3.513
0.058,0.969,0.009,3.723,0.488,-0.061,86.601,3.389
0.057,0.977,0.011,4.15,0.122,-0.61,86.685,3.286
0.051,0.983,0.007,3.601,0.366,-0.061,86.742,3.206
0.057,0.975,0.009,1.831,0.305,-0.549,86.699,3.261
0.059,0.966,0.022,3.54,0.549,-0.305,86.643,3.281
0.059,0.973,0.015,2.808,0.793,0,86.602,3.31
0.057,0.979,0.016,2.38,0.977,0.122,86.475,3.409
0.055,0.98,0.01,2.258,1.343,-0.061,86.499,3.379
0.055,0.985,0.008,2.441,1.465,-0.61,86.625,3.301
0.053,0.977,0.023,2.319,1.038,-0.183,86.685,3.212
0.061,0.975,0.022,2.808,1.16,-0.854,86.599,3.276
0.058,0.985,0.02,1.648,2.136,-0.793,86.518,3.319
0.067,0.98,0.021,1.953,1.831,-0.732,86.281,3.507
0.065,0.981,0.026,1.526,2.258,-0.854,86.111,3.671
0.053,0.971,0.031,2.563,2.075,-0.854,86.171,3.558
0.058,0.979,0.021,3.601,2.625,-1.099,86.16,3.565
0.072,0.99,0.014,0.244,4.028,-1.038,86.139,3.625
0.064,0.971,0.021,1.709,2.38,0.122,86.169,3.618
0.062,0.976,0.018,2.93,2.869,0.183,86.109,3.742
0.076,0.979,0.022,-0.793,2.869,0.122,85.858,3.997
0.06,0.978,0.014,-0.61,2.93,0.427,86.014,3.835
0.061,0.967,0.019,2.625,2.563,-0.366,86.052,3.801
0.061,0.975,0.011,0,2.319,0.183,86.086,3.79
0.066,0.972,0.007,2.563,0.916,-0.549,86.276,3.645
0.069,0.981,0.006,1.648,0.549,-0.244,86.169,3.774
0.06,0.978,0.009,0.854,0.061,-0.244,86.22,3.746
0.071,0.98,0.008,1.16,0.427,0.122,86.086,3.888
0.091,0.99,0.001,1.221,0.488,0.244,85.751,4.234
0.08,0.987,0.003,-0.244,0.244,0.183,85.608,4.381
0.066,1,0.013,1.465,0.122,0.732,85.539,4.447
0.066,0.982,0.003,4.028,-0.366,1.892,85.619,4.371
0.085,0.977,0.008,3.357,-0.244,3.113,85.681,4.3
0.063,0.98,0.005,4.333,0.854,4.272,85.912,4.065
0.03,0.974,0.005,4.517,1.526,3.296,86.429,3.557
0.037,0.97,0.019,7.324,0.854,0.732,86.807,3.146
0.049,0.971,0.026,6.592,-0.122,-0.854,87.254,2.624
0.061,0.978,0.029,5.554,-1.465,1.099,87.157,2.596
0.053,0.993,0.031,1.404,-0.427,0.793,86.691,2.926
0.048,0.978,0.034,3.601,-1.648,0.61,86.462,3.07
0.059,0.971,0.02,10.071,-8.789,3.235,86.363,3.225
0.028,0.979,0.044,0.732,-2.563,-0.488,86.664,2.745
0.045,0.972,0.046,3.723,-1.343,-0.061,86.608,2.645
0.042,0.977,0.045,2.563,-0.427,0.122,86.574,2.559
0.04,0.976,0.039,1.282,-0.366,0.061,86.591,2.266
0.023,0.983,0.041,0.488,0.488,-0.122,86.675,2.196
0.014,0.983,0.043,1.404,-0.244,0.793,87.001,1.74
0.055,0.971,0.045,1.709,0.61,-0.244,86.872,1.942
0.045,0.978,0.034,1.404,-0.122,-0.427,86.874,2.023
0.036,0.976,0.04,1.099,0.183,-0.183,86.756,2.203
0.028,0.974,0.035,2.686,-0.122,-0.061,86.696,2.407
0.029,0.975,0.038,2.502,-0.305,-0.061,87.049,2.018
0.033,0.984,0.033,1.831,-0.244,-0.305,87.178,1.842
0.038,0.973,0.04,0.916,-0.244,-0.061,87.151,1.88
0.054,0.975,0.043,1.587,-0.549,-0.061,86.807,2.256
0.039,0.987,0.028,0.366,-1.038,-0.122,86.806,2.394
0.041,0.967,0.04,1.221,0.732,0.061,86.646,2.52
0.035,0.994,0.024,2.808,-2.441,-0.305,86.847,2.466
0.019,0.969,0.023,2.625,-0.305,0,87.412,1.971
0.019,0.988,0.028,1.404,-1.526,-0.061,87.627,1.678
0.026,0.976,0.031,-0.183,0.122,0,87.873,1.453
0.027,0.978,0.024,1.282,-0.427,0.732,87.946,1.337
0.021,0.981,0.024,2.197,0.793,0.305,87.923,1.362
0.031,0.983,0.025,1.892,-0.244,0.427,87.83,1.547
0.021,0.98,0.018,1.282,-1.282,0.671,88.017,1.47
0.004,0.984,0.02,2.136,-1.648,0.366,88.292,1.139
0.027,0.975,0.02,4.211,-0.977,-0.122,88.272,1.221
0.026,0.977,0.02,3.174,-1.038,-0.549,88.378,1.137
0.03,0.98,0.021,5.371,-0.977,-0.061,88.257,1.271
0.036,0.979,0.033,3.174,-0.427,-0.061,87.778,1.739
0.024,0.972,0.035,5.31,-0.61,-0.732,87.671,1.692
0.004,0.979,0.032,-1.77,-0.488,0.671,87.754,1.378
0.018,0.948,0.036,0.549,-0.427,0.305,87.645,1.209
0.022,0.971,0.029,3.418,0.427,0.183,87.796,1.009
0.021,0.994,0.023,-0.488,-0.305,2.197,87.983,0.966
0.002,0.974,0.02,2.014,-1.282,0.549,88.146,0.939
0.008,0.99,0.016,2.991,-3.357,-0.854,88.501,0.781
0.033,0.979,0.025,3.052,-0.366,-1.404,88.462,0.932
0.013,0.978,0.033,4.272,-0.61,-0.793,88.403,0.813
-0.001,0.967,0.021,2.869,-4.395,-2.441,88.423,0.759
0.024,0.976,0.031,-4.944,-3.967,1.099,88.096,1.002
0.021,0.984,-0.012,-9.033,-7.69,0.061,88.645,0.826
0.004,0.987,-0.011,-4.517,-4.761,0.549,89.188,0.693
0.071,0.992,-0.035,1.404,0.183,3.174,88.215,1.741
-0.021,0.995,-0.031,1.77,-0.305,1.404,88.314,1.076
-0.014,0.972,-0.009,-7.874,-3.052,-0.671,88.624,0.569
aX,aY,aZ,gX,gY,gZ,Roll,Pitch
0.024,0.97,0.034,-4.272,-1.038,-5.554,88.945,0.874
0.012,0.986,0,2.441,-1.404,-1.831,89.925,0.016
0.133,0.966,0.045,-2.38,1.343,0.427,87.488,2.281
0.045,0.988,0.001,-1.709,-1.526,-1.831,86.644,3.139
-0.001,0.992,0.005,2.808,-0.122,-2.563,87.153,2.746
0.047,0.95,0.033,6.897,2.136,-2.808,86.489,3.286
0.07,0.981,0.016,5.005,2.38,-2.563,87.51,2.358
0.081,0.972,0.024,1.587,1.16,-1.282,86.892,2.889
0.067,0.98,0.024,2.075,2.258,-1.221,85.839,3.909
0.052,0.981,0.017,4.578,0.183,-1.709,85.874,3.953
0.083,0.977,0.032,2.197,1.282,-1.038,85.623,4.139
0.065,0.973,0.031,3.967,0.732,-0.549,85.803,3.914
0.07,0.97,0.029,2.136,0.671,-0.061,85.725,3.963
0.071,0.976,0.028,0.366,0.671,-0.427,85.408,4.239
0.071,0.972,0.033,1.099,1.038,-0.122,85.551,4.076
0.061,0.972,0.031,3.723,0.793,0.244,85.605,4.011
0.066,0.983,0.018,1.892,0.488,-0.061,85.739,3.937
0.072,0.972,0.034,1.587,0.732,0.366,85.681,3.961
0.066,0.965,0.033,2.014,0.977,0.305,85.744,3.89
0.06,0.976,0.032,2.441,0.793,-0.244,85.756,3.878
0.066,0.976,0.035,1.77,0.671,-0.183,85.64,3.887
0.053,0.979,0.029,1.16,0.61,-0.061,85.933,3.6
0.063,0.976,0.037,2.869,1.16,-0.244,85.962,3.543
0.058,0.969,0.036,4.15,0.61,-0.305,85.944,3.524
0.065,0.976,0.034,1.892,1.343,0,85.966,3.513
0.066,0.975,0.026,2.136,1.343,0.122,85.813,3.703
0.068,0.986,0.027,2.625,1.038,0.244,85.822,3.767
0.063,0.977,0.005,1.038,1.953,0.183,85.938,3.833
0.068,0.979,0.026,2.686,1.526,0.244,85.943,3.863
0.064,0.977,0.031,2.258,2.869,-0.61,85.945,3.837
0.055,0.972,0.029,2.014,2.136,-0.305,86.101,3.662
0.056,0.975,0.033,1.709,2.502,-0.671,86.031,3.559
0.075,0.978,0.029,1.526,2.563,0.122,85.918,3.669
0.07,0.975,0.025,2.258,1.587,-0.061,85.887,3.749
0.062,0.974,0.029,1.282,2.258,-0.427,85.789,3.855
0.07,0.984,0.018,1.221,2.075,0.305,85.692,4.053
0.071,0.982,0.027,2.441,1.648,-0.305,85.753,3.996
0.071,0.985,0.018,2.808,0.977,0.122,85.783,4
0.068,0.984,0.018,2.502,0.671,-0.061,85.763,4.072
0.07,0.98,0.024,2.258,0.305,-0.244,85.739,4.07
0.066,0.97,0.026,2.686,0.305,0.183,85.807,4
0.066,0.974,0.027,2.93,0,-0.122,85.814,3.947
0.078,0.973,0.027,3.662,0.244,0.061,85.613,4.109
0.068,0.98,0.028,0.671,0.305,0.732,85.623,4.075
0.071,0.978,0.026,2.869,0.366,0.122,85.564,4.139
0.081,0.98,0.025,1.892,-0.122,0.244,85.372,4.355
0.084,0.981,0.025,1.831,-0.061,0.366,85.311,4.435
0.089,0.982,0.022,1.16,0.061,0.061,85.05,4.739
0.067,0.985,0.024,1.77,0,0.732,85.124,4.671
0.065,0.978,0.031,1.953,-0.366,2.136,85.328,4.429
0.062,0.977,0.031,2.502,-0.427,2.197,85.596,4.111
0.059,0.979,0.031,-0.488,0.854,3.723,85.939,3.68
0.063,0.975,0.029,1.526,3.235,1.221,85.95,3.636
0.04,0.972,0.019,4.761,1.465,0.427,86.35,3.278
0.04,0.979,0.025,2.136,1.16,-0.427,86.684,2.952
0.046,0.978,0.027,2.869,1.16,-0.427,86.877,2.764
0.052,0.986,0.026,2.319,1.099,0.671,87.052,2.589
0.048,0.97,0.032,3.906,-0.061,0.366,86.848,2.716
0.042,0.978,0.031,2.563,-0.122,0.427,86.764,2.754
0.047,0.975,0.031,1.465,-0.488,0.61,86.719,2.775
0.046,0.976,0.033,1.648,-0.61,0.122,86.726,2.694
0.051,0.98,0.029,3.235,-1.16,0,86.722,2.73
0.048,0.982,0.028,1.465,-1.526,-0.305,86.673,2.817
0.024,0.981,0.039,4.639,-1.099,-0.366,86.894,2.465
0.041,0.98,0.033,3.113,-1.099,-0.183,86.959,2.391
0.042,0.98,0.04,1.526,-1.648,0.244,86.964,2.249
0.037,0.98,0.041,1.038,-1.343,0.305,86.948,2.087
0.047,0.985,0.036,2.563,-0.671,-0.305,86.741,2.427
0.028,0.963,0.053,4.028,0.977,-0.671,86.646,2.251
0.035,0.964,0.054,5.188,0.122,-0.732,86.532,2.165
0.051,0.985,0.044,1.099,-0.305,0.061,86.383,2.358
0.037,0.971,0.05,-0.671,-0.732,0,86.292,2.217
0.043,0.97,0.046,1.709,-0.183,0.244,86.25,2.43
0.024,0.973,0.046,0.793,-0.427,0.549,86.453,2.262
0.037,0.971,0.044,1.709,-0.305,0.122,86.561,2.065
0.047,0.976,0.043,1.526,0.061,1.038,86.565,2.209
0.023,0.978,0.041,1.587,0.122,0.366,86.805,1.917
0.036,0.975,0.041,1.465,0.305,0.793,86.763,2.088
0.033,0.979,0.036,1.953,0.305,0.122,86.894,2.034
0.034,0.981,0.041,1.404,0.305,0.61,87.03,1.847
0.035,0.973,0.042,1.587,0.122,-0.061,86.905,2.027
0.024,0.974,0.042,0.793,0.366,0.305,86.992,1.861
0.013,0.977,0.043,1.465,0.183,-0.366,87.087,1.558
0.034,0.978,0.033,0.916,-0.244,-0.122,87.182,1.558
0.028,0.981,0.041,1.648,-0.183,0,87.255,1.444
0.035,0.972,0.034,3.662,0.122,-0.854,87.276,1.597
0.012,0.981,0.044,3.174,-1.648,-0.549,87.271,1.587
0.011,0.966,0.013,1.465,1.892,-0.549,87.703,1.26
0.028,0.981,0.033,1.77,0.244,0.122,87.802,1.265
0.035,0.978,0.037,1.77,0.427,-0.366,87.768,1.263
0.019,0.978,0.034,1.953,0.549,0.061,87.813,1.372
0.023,0.979,0.034,2.808,0.488,-0.427,87.471,1.53
0.018,0.981,0.03,5.005,0.427,-0.183,87.588,1.383
0.02,0.986,0.036,1.526,-0.488,0.244,87.723,1.165
0.041,0.975,0.035,0.549,-0.549,0.061,87.54,1.479
0.034,0.979,0.03,3.235,-0.854,0,87.49,1.642
0.052,0.985,0.032,1.892,-0.244,0.732,87.12,2.142
0.027,0.972,0.044,0.305,-0.854,-0.122,86.945,2.26
0.025,0.973,0.044,2.258,-0.061,0.061,87.017,2.027
0.023,0.984,0.012,1.099,-1.648,0.366,87.31,1.871
0.015,0.972,0.038,0.61,0.793,0.305,87.574,1.326
0.02,0.981,0.017,-0.427,0.732,0.305,87.962,1.21
-0.017,0.911,0.041,-3.723,0.305,-0.061,88.269,0.609
0.1,1.043,-0.043,2.563,-7.874,-6.592,88.1,1.731
0.028,0.96,0.014,-3.418,0.244,3.052,88.026,1.928
0.039,0.96,-0.007,-9.949,-19.226,-7.324,87.771,2.229
0.047,0.988,-0.024,-26.855,-11.108,-2.747,86.764,3.113
0.068,0.992,-0.116,-7.874,-1.038,-2.014,86.679,2.676
0.046,0.974,-0.066,-4.395,-3.906,-1.587,85.715,2.933
aX,aY,aZ,gX,gY,gZ,Roll,Pitch
-0.025,0.956,-0.003,0.916,-1.892,-2.991,86.344,1.995
0.015,0.99,-0.03,4.7,-1.16,-2.319,86.509,1.515
0.011,0.973,-0.011,4.15,-1.221,-1.77,88.242,0.695
0.009,0.993,-0.022,3.113,-1.404,-4.333,89.031,0.143
0.119,0.991,-0.034,2.563,-1.221,-3.174,87.372,2.224
0.078,0.955,-0.003,4.517,0.122,0.61,86.676,3.166
0.018,0.998,-0.018,-0.366,-1.099,-1.343,86.58,3.235
0.05,1.013,-0.063,4.578,-1.465,-1.77,85.828,3.812
0.052,0.889,0.019,1.77,-0.977,-0.916,86.925,2.923
0.054,0.968,-0.021,5.188,-0.549,0.427,87.164,2.56
0.049,1.038,-0.042,1.343,-1.038,-0.854,86.621,2.997
0.04,1.01,-0.022,1.16,-0.366,-1.343,86.988,2.852
0.006,0.951,0.01,2.38,-0.061,-1.953,87.594,2.151
0.086,0.955,-0.044,3.235,-0.366,-0.122,87.014,2.631
0.007,0.962,0.025,4.272,0.427,-1.953,87.884,2.066
0.01,1.027,0.002,3.357,-0.366,0.977,88.376,1.621
0.005,1.014,0.004,2.258,-0.427,-0.793,88.409,1.579
0.086,0.977,-0.043,1.953,-0.488,0.671,88.427,1.562
0.059,0.991,-0.04,2.502,-0.366,0.732,87.458,2.289
0.081,0.977,-0.052,3.967,-0.488,0.916,86.164,3.331
0.011,0.91,0.057,1.648,0.427,-0.732,86.304,3.507
0.056,1.011,0,3.967,-0.061,-0.977,86.911,3.044
0.063,1.018,-0.032,4.028,0.061,-0.061,86.896,3.077
0.053,1.025,-0.015,4.028,-0.854,-0.244,87.351,2.645
0.046,0.931,0.044,3.662,0.549,-0.549,86.863,3.137
0.068,0.967,-0.012,2.93,-0.305,0.061,86.644,3.348
0.048,1.009,-0.021,3.418,0,0.244,86.854,3.145
0.032,0.986,0.01,3.601,0.671,-0.427,87.12,2.863
0.023,0.974,0.041,1.831,0.305,-0.854,87.493,2.494
0.032,0.971,0.044,2.441,0.183,-0.916,87.769,1.958
0.062,0.994,-0.021,3.845,0.122,-0.244,87.588,2.159
0.029,0.96,0.054,3.479,0.061,0.427,87.251,2.133
0.019,0.99,0.036,2.075,0.183,-0.977,87.353,2.069
0.075,0.969,-0.012,1.587,0.061,0.793,87.165,2.709
0.033,0.958,0.063,2.441,0.183,-0.854,86.893,2.31
0.012,0.979,0.031,3.235,0.427,0,87.326,2.047
0.092,0.958,0.007,1.587,-0.244,0,86.59,3.147
0.03,0.979,0.048,0.916,0.061,-0.732,86.691,2.465
0.067,1.015,-0.019,2.258,-0.427,-15.564,86.916,2.923
0.064,1.031,-0.02,2.075,0.61,-0.366,86.354,3.638
0.055,1.042,0.008,1.648,0.61,-0.977,86.955,3.036
0.049,1.028,0.017,1.404,0.122,-0.916,86.729,3.266
0.039,0.96,0.036,1.038,0.305,-0.427,87.023,2.922
0.048,0.97,0.033,2.747,0.488,-0.671,86.951,2.733
0.05,1.009,0.027,1.953,0.427,-0.977,86.848,2.689
0.043,1.03,-0.005,2.258,0.366,-0.61,87.085,2.602
0.04,0.925,0.045,3.052,0.854,0.122,86.982,2.64
0.072,0.937,0.03,3.906,0.183,0.183,86.667,3.014
0.046,0.929,0.048,3.601,0.244,-0.305,86.499,3.022
0.018,0.981,0.039,2.747,0.183,-1.099,86.353,2.684
0.04,0.983,0.001,1.953,0.671,-0.244,86.825,2.636
0.008,0.995,0.028,3.113,0.61,-0.305,87.623,1.645
0.029,0.99,0.034,2.563,-1.648,-1.099,87.987,1.363
0.065,0.96,0.02,3.052,-0.793,-0.488,87.617,2.053
0.057,0.991,-0.005,1.831,0.916,-0.366,87.44,2.302
0.063,0.999,0.015,3.052,0.793,-0.732,86.754,3.11
0.057,0.973,0.023,0.793,0.793,-0.732,86.381,3.535
0.073,0.979,0.012,3.113,0.122,-0.549,86.313,3.628
0.052,0.983,0.015,0,0.183,0.916,86.31,3.565
0.047,0.973,0.016,3.052,-0.671,1.099,86.514,3.344
0.047,0.994,0.007,1.892,-0.488,3.784,86.734,3.181
0.064,0.981,0.016,0.854,-0.977,3.235,86.84,3.058
0.042,0.988,0.005,2.93,-0.549,2.869,87.029,2.9
0.02,0.98,0.006,1.648,-0.305,0.977,87.442,2.51
0.035,0.97,0.021,6.409,-0.61,-0.977,87.537,2.358
0.02,0.975,0.025,0.488,-0.183,-0.977,88.095,1.71
0.025,1.004,0.042,2.075,0.061,-0.061,87.984,1.463
0.138,0.989,0.051,3.113,0.244,-0.916,86.238,3.164
0.091,1.005,0.064,1.892,0.183,-0.183,85.265,3.94
-0.071,0.937,-0.035,2.686,-0.244,-0.427,86.791,2.663
-0.003,0.998,0.054,2.014,0.427,-0.305,87.004,2.262
-0.082,0.971,0.037,1.465,0.732,-0.61,87.999,-0.937
-0.026,0.941,-0.032,2.686,-0.793,0.427,87.282,-2.693
0.012,0.94,-0.039,1.465,-0.793,0.244,88.508,-1.463
0.162,0.948,0.019,4.639,1.587,-0.916,88.965,1.01
0.236,0.969,-0.001,1.953,0.732,2.197,84.164,5.781
0.055,0.941,-0.024,1.404,1.587,0.732,82.989,6.979
-0.078,0.955,0.018,3.052,1.77,-0.793,84.374,5.623
-0.072,1.01,0.061,2.38,-0.977,-0.61,87.759,2.091
0.184,0.96,-0.015,1.831,0.671,0.61,88.546,1.324
0.083,1.007,0.063,2.808,1.77,-0.671,87.479,1.71
0.161,1.001,0.026,3.967,1.038,-0.061,84.531,5.112
-0.092,0.991,-0.022,2.747,0.244,0,85.103,4.84
0.13,0.982,0.008,2.014,-0.366,0.549,85.811,4.05
0.102,1.004,0.054,0.671,-0.671,0.366,85.578,4.32
-0.072,0.99,0.063,1.953,0.427,0.183,88.212,0.976
-0.109,0.981,0.036,2.075,1.404,-0.427,87.546,0.735
0.022,0.955,0.001,0.793,0.977,0.61,87.601,-0.838
-0.025,0.981,0.051,2.38,0.549,15.259,86.515,-2.699
0.005,0.99,0.054,0.671,0.061,0.427,87.404,-1.576
0.03,1,0.001,1.587,0.183,-0.366,88.381,0.465
0.011,0.987,0.052,1.282,0.671,0.671,87.708,0.297
0.007,0.997,0.035,2.075,0.977,0.488,87.82,0.763
-0.01,0.996,0.049,2.014,0.671,-0.488,87.961,0.548
0.016,0.968,0.025,1.953,0.488,0.671,87.647,0.34
-0.005,0.978,0.031,0.671,-0.183,-0.061,87.97,0.115
0.102,0.987,-0.004,-0.732,0.671,0.916,87.915,1.493
0.195,0.981,-0.055,0.671,5.737,-5.066,85.5,4.5
-0.434,1.005,0.018,-0.793,-6.958,0.061,87.941,-2.053
0.094,1.058,0.01,-0.366,1.099,8.179,89.245,-0.606
-0.166,0.99,0.039,2.502,-7.263,-4.089,85.592,-4.405
0.056,1.032,0.015,1.892,-2.991,2.014,83.603,-6.293
-0.104,0.945,0.025,2.502,-1.77,-1.953,87.863,-1.721
0.063,0.968,0.036,0.305,-1.465,1.16,87.225,-2.216
-0.077,0.953,0.029,-4.944,-0.549,2.991,88.207,-0.922
0.201,0.991,0.038,1.953,-1.892,2.136,87.746,1.222
0.119,0.991,0.041,-2.136,-2.808,-1.526,85.047,4.48
0.002,0.975,-0.01,-15.625,-5.859,3.418,86.142,3.58
aX,aY,aZ,gX,gY,gZ,Roll,Pitch
0.016,0.974,-0.024,0.122,-0.305,-1.16,85.057,4.899
0.044,0.982,-0.036,3.296,-0.061,-0.427,87.339,2.628
-0.015,1.003,-0.053,8.972,-0.366,-2.686,88.089,0.659
0.05,0.97,0.003,6.714,-0.61,-2.014,87.883,1.372
0.037,0.944,0.005,2.136,-0.122,-1.343,87.914,1.7
0.025,0.96,0.018,4.089,0.427,-1.892,88.508,1.435
0.023,0.986,0.027,4.456,-0.427,-1.77,87.835,2.015
0.053,0.954,0.019,5.676,-0.488,-1.343,87.686,2.069
0.038,0.951,0.046,6.042,0.427,-1.099,87.345,2.076
0.03,0.984,0.052,5.005,0.549,-0.549,86.979,2.137
0.034,1.002,0.047,3.418,1.465,-1.038,86.679,2.28
0.043,0.966,0.053,3.662,0.427,-0.549,86.404,2.116
0.066,1.001,0.016,2.319,0.854,0.305,86.517,2.493
0.043,0.955,0.049,1.953,1.709,-0.244,86.386,2.694
0.069,0.982,-0.024,3.174,0.488,-1.038,86.484,3.231
0.025,0.954,0.063,1.892,0.977,-1.099,86.644,2.985
0.052,1.021,0.035,3.967,0.732,-1.099,86.692,2.776
0.025,0.954,0.066,2.686,0.122,0.732,86.759,2.512
0.025,0.96,0.062,1.526,0,-1.099,86.191,1.868
0.026,0.961,0.059,3.235,0.122,0.122,86.242,1.877
0.027,1,0.041,2.319,0.793,-0.916,86.311,1.515
0.073,0.952,0.059,2.502,0,-0.488,86.045,2.235
0.073,0.973,0.006,1.892,0.244,0.122,86.193,2.932
0.089,0.977,0.004,2.686,0.732,0.183,85.842,3.834
0.08,0.975,0.039,1.343,0.793,0,85.096,4.64
0.046,0.985,0.019,2.441,0.793,0.183,85.683,4.201
0.077,0.953,0.039,2.075,2.075,-0.427,85.47,4.281
0.034,0.989,0.037,2.38,1.77,-0.244,86.02,3.462
0.064,0.983,0.021,1.404,1.587,-0.549,86.367,3.215
0.075,0.97,0.06,1.648,0.366,0.549,85.684,3.655
0.068,0.971,0.057,2.625,0.732,-0.366,85.654,3.514
0.086,0.955,0.022,3.601,0.061,-0.244,85.084,4.314
0.05,0.982,0.035,3.235,0.183,-0.427,85.151,4.115
0.063,0.955,0.035,2.502,0.549,0.122,85.469,3.956
0.053,0.972,0.035,3.906,1.526,-0.183,85.823,3.735
0.062,0.96,0.045,2.502,1.099,-0.305,85.96,3.38
0.073,0.992,0.027,2.93,1.038,-0.488,85.745,3.699
0.056,0.984,0.036,1.587,0.671,-0.366,85.868,3.561
0.069,0.969,0.043,1.892,0.854,-0.061,85.61,3.789
0.056,0.977,0.035,2.93,0.183,-0.488,85.786,3.677
0.06,0.969,0.042,1.587,0.427,0,85.809,3.513
0.071,0.969,0.04,-1.892,0.732,0.977,85.574,3.747
0.08,0.982,0.025,1.465,0.061,0.427,85.576,3.897
0.054,0.985,0.02,3.174,0.122,0.244,85.708,3.866
0.055,0.972,0.028,0.549,0.305,1.038,85.864,3.788
0.048,0.969,0.024,2.869,-0.977,2.563,86.252,3.463
0.047,0.976,0.023,-1.526,-0.61,4.333,86.704,2.983
0.056,0.988,0.013,-4.15,1.099,1.77,86.721,3.015
0.021,0.972,0.012,1.648,-0.061,-0.488,87.27,2.52
0.024,0.972,0.01,1.526,0.061,-0.427,87.672,2.17
0.032,0.986,0.002,5.371,0.122,0.366,87.98,1.949
0.032,0.988,0.013,2.441,-0.916,0.793,88.318,1.594
0.031,0.986,0.011,3.174,-0.061,0.305,88.182,1.739
0.04,0.979,0.014,3.723,-0.732,0.854,87.947,1.966
0.033,0.976,0.018,2.197,-0.732,0.061,87.851,1.984
0.025,0.976,0.017,2.93,-1.526,-0.122,87.907,1.895
0.032,0.971,0.016,2.075,-0.427,-0.061,87.85,1.919
0.04,0.978,0.017,2.563,-0.671,-0.977,87.84,1.91
0.038,0.979,0.025,1.099,-0.244,-0.122,87.724,1.993
0.049,0.976,0.019,2.136,-0.671,-0.122,87.399,2.345
0.031,0.977,0.02,2.014,-0.488,-0.854,87.398,2.322
0.036,0.982,0.016,1.526,-0.244,-0.61,87.46,2.259
0.029,0.968,0.03,0.549,0.244,-0.549,87.533,2.129
0.026,0.974,0.027,3.113,-0.488,0,87.742,1.794
0.021,0.977,0.023,3.296,-0.732,0.061,87.828,1.647
0.023,0.975,0.013,2.258,-0.427,-0.122,87.989,1.47
0.023,0.978,0.018,1.648,-0.061,0.183,88.175,1.384
0.028,0.973,0.022,0.61,0.427,0.366,88.202,1.408
0.041,0.974,0.016,3.845,0.549,-0.061,88.02,1.698
0.01,0.984,0.014,1.709,0.427,0.122,88.181,1.501
0.028,0.985,0.02,0.061,0.366,-0.244,88.11,1.567
0.022,0.979,0.015,1.709,0.305,0.183,88.238,1.483
0.032,0.977,0.014,1.404,0.061,0.427,88.371,1.348
0.019,0.98,0.02,1.343,-0.122,0,88.211,1.476
0.019,0.978,0.005,2.441,0.122,0.366,88.431,1.35
0.099,0.971,-0.01,1.77,-0.305,0.427,87.488,2.475
-0.016,0.98,0.026,1.404,-0.244,-0.244,88.119,1.778
0.035,0.977,0.007,3.235,-0.183,-0.061,87.944,2.012
0.025,0.98,0.012,2.747,-0.488,-0.366,87.842,2.094
0.023,0.978,0.025,1.16,-1.099,-0.183,88.582,0.98
0.023,0.975,0.015,3.235,-0.366,0.122,88.23,1.55
0.021,0.981,0.009,1.221,-0.916,-0.183,88.392,1.345
0.013,0.979,0.014,1.038,-0.732,0.549,88.51,1.174
0.016,0.981,0.018,2.258,-0.427,0.305,88.657,1.064
-0.001,0.983,0.016,1.587,-0.488,0.854,88.909,0.708
0.102,0.937,0,2.747,-1.587,-0.488,87.962,1.914
0.74,1.018,0.116,2.502,2.747,-9.094,77.5,12.311
-0.504,0.954,0.04,-6.897,-7.202,-0.122,84.467,4.929
0.829,1.029,0.05,16.113,6.165,-4.578,73.268,16.47
0.061,0.988,0.002,0.61,-5.554,-1.77,73.997,15.729
0.067,1.013,-0.021,-7.08,-4.211,-1.282,83.45,6.472
0.003,0.977,-0.009,5.005,-2.014,0.916,76.53,13.467
-0.035,0.983,-0.004,2.625,-4.15,1.892,88.54,1.382
0.057,0.969,0.01,2.319,-1.831,1.038,88.616,1.339
0.145,0.973,-0.006,1.221,-2.686,0.183,87.495,2.502
-0.013,1.016,-0.055,-27.954,-14.099,-3.662,87.62,2.242
aX,aY,aZ,gX,gY,gZ,Roll,Pitch
0.027,0.974,-0.006,7.446,-0.427,-2.197,86.735,3.158
0.014,0.99,-0.01,4.028,-1.221,-1.099,87.258,2.506
-0.006,0.982,-0.014,5.432,0.244,-2.075,88.739,0.314
0.027,0.982,-0.02,3.479,0.488,-1.831,88.842,0.906
0.059,0.994,-0.011,4.272,1.221,-1.709,88.431,1.362
0.063,0.99,-0.013,1.282,0.916,-1.099,87.762,2.081
0.039,1.002,0.027,5.798,0.977,-1.587,87.267,2.723
0.036,0.979,-0.015,4.211,-0.122,-0.793,87.151,2.845
0.047,1.016,0.022,1.953,0.061,-1.099,87.331,2.65
0.035,0.966,0.027,3.967,0.305,-1.16,87.57,2.261
0.034,0.971,0.028,3.906,0.732,-0.854,87.609,2.209
0.024,0.926,0.053,0.732,0.916,-0.549,87.179,2.068
0.039,1.02,0.024,4.089,0.793,-1.404,87.243,1.951
0.061,0.964,0.006,2.563,0.977,-0.061,87.138,2.339
0.064,0.933,0.036,2.197,0.732,-0.183,86.679,2.806
0.064,1.022,0.003,1.77,0.671,-0.305,86.525,3.323
0.065,1.009,0.01,3.052,1.038,0.061,86.202,3.712
0.017,0.962,0.053,2.808,0.305,-0.61,86.591,3.068
0.047,1.017,0.02,2.563,0.427,0,86.983,2.754
0.083,0.935,0.036,3.601,0.549,-0.916,86.459,3.088
0.039,1.023,0.028,3.723,0.61,0.061,86.649,2.696
0.012,0.99,0.051,4.089,0.427,-1.038,86.758,2.6
0.025,1.009,0.044,3.54,0.305,0.183,86.759,2.291
0.073,0.973,0.026,2.38,-0.244,0.061,86.991,2.119
0.026,0.996,0.057,3.54,0.732,-0.122,86.763,1.952
0.089,0.951,0.055,2.747,-0.183,-0.183,85.906,3.098
0.074,0.966,0.027,2.869,-0.244,0.549,85.435,3.856
0.051,1.009,0.049,3.662,0.366,15.564,85.549,3.503
0.014,0.985,0.066,3.296,-0.305,-0.916,85.588,3.342
0.079,0.967,0.035,3.296,0.061,0.854,85.904,3.182
0.056,0.94,0.076,1.892,-0.183,-0.061,85.569,2.93
0.041,0.998,0.059,3.235,1.099,-0.61,85.537,2.785
0.04,0.994,0.053,3.662,1.099,-0.549,85.452,3.153
0.074,0.963,0.047,3.296,0.305,0.122,85.373,3.084
0.063,0.973,0.055,2.197,0.916,-0.183,85.563,3.16
0.056,0.965,0.063,2.319,1.282,0.061,85.325,3.412
0.058,0.976,0.06,2.991,1.282,-0.732,85.033,3.69
0.06,0.982,0.062,0.488,1.709,1.099,85.05,3.469
0.057,0.976,0.061,3.906,1.221,0.061,85.048,3.384
0.057,0.979,0.06,3.418,0.732,-0.244,85.084,3.385
0.063,0.974,0.066,2.441,0.427,-0.488,84.968,3.466
0.057,0.969,0.07,1.831,0.488,-0.244,84.902,3.423
0.044,0.961,0.073,4.272,0.061,0.549,84.878,3.24
0.057,0.971,0.068,1.526,0.366,0.122,84.777,3.248
0.056,0.97,0.062,0.244,0.366,-0.122,84.881,3.142
0.064,0.981,0.057,1.343,0.305,-0.122,84.975,3.237
0.052,0.975,0.058,1.648,0,1.77,85.077,3.355
0.049,0.966,0.062,1.953,0.244,1.16,85.207,3.248
0.044,0.982,0.056,-0.061,0,2.502,85.406,3.062
0.052,0.983,0.047,-4.272,0.366,3.784,85.627,2.896
0.048,0.98,0.04,1.648,-0.793,1.831,85.859,2.834
0.02,0.972,0.043,1.953,-0.793,0.732,86.364,2.398
0.029,0.973,0.047,7.019,-0.671,-0.244,86.599,2.186
0.029,0.984,0.05,2.625,-1.221,0,86.777,1.84
0.021,0.978,0.054,0.916,-1.16,0.061,86.811,1.443
0.029,0.978,0.051,1.831,-0.671,-0.488,86.648,1.574
0.034,0.977,0.05,2.93,-0.732,-0.488,86.579,1.653
0.034,0.979,0.055,4.272,-0.854,-0.854,86.473,1.737
0.045,0.982,0.06,2.38,-0.366,-0.732,86.218,2.077
0.049,0.98,0.058,2.075,-0.916,-0.549,85.979,2.362
0.05,0.975,0.062,0.793,-0.61,-0.488,85.704,2.591
0.047,0.971,0.057,3.113,-0.61,-0.916,85.558,2.772
0.038,0.976,0.06,1.77,-0.366,-0.488,85.604,2.685
0.034,0.971,0.059,2.258,-0.61,-0.061,85.708,2.482
0.031,0.975,0.061,2.563,-0.61,-0.244,85.869,2.199
0.026,0.974,0.06,1.587,-0.916,-0.305,85.991,1.894
0.031,0.971,0.064,1.526,-0.183,0.732,85.988,1.78
0.031,0.973,0.06,1.648,0,0.366,86.001,1.723
0.028,0.978,0.056,1.099,0.122,0,86.096,1.688
0.024,0.973,0.053,1.953,0.366,-0.244,86.201,1.669
0.04,0.978,0.05,0.854,0.732,0.305,86.326,1.809
0.03,0.981,0.047,2.686,1.343,0.488,86.498,1.791
0.035,0.977,0.058,-0.854,0.488,0.427,86.414,1.895
0.035,0.975,0.056,0.793,0.061,0.122,86.287,2.051
0.041,0.978,0.048,1.526,0.244,0.366,86.306,2.064
0.009,0.98,0.051,3.296,1.953,0.122,86.421,1.766
0.085,0.986,0.043,1.648,0,0.793,86.188,2.487
0.081,0.962,0.05,0.183,1.648,-0.061,85.767,3.164
0.036,0.963,0.059,1.282,-0.122,-0.366,85.701,3.097
0.046,0.973,0.044,3.052,-0.488,0,85.343,3.651
0.031,0.979,0.047,0.854,-1.16,0.488,85.887,2.868
0.012,0.985,0.043,-1.465,-0.61,0.366,86.62,1.846
0.006,0.986,0.027,2.014,-0.183,0.366,87.262,1.396
-0.073,0.955,0.05,1.77,0.122,-1.038,87.515,-0.354
0.068,0.98,0.036,1.16,-0.061,0.854,87.688,0.177
-0.035,0.961,0.039,0.977,-0.183,-0.732,87.689,-0.517
0.079,1,0.025,1.038,-0.427,0.732,87.725,0.561
0.123,1.015,0.029,-1.77,1.587,2.014,86.124,3.397
-0.017,0.999,0.026,5.859,-2.014,-6.592,87.247,2.159
0.027,0.977,0.019,0.061,-0.305,2.014,86.654,3.032
0,1,0.043,7.324,-3.662,-2.014,87.469,1.895
0.007,0.978,0.035,7.385,-3.784,13.245,88.216,0.228
0.005,0.97,0.061,-8.667,2.625,9.888,87.642,0.563
-0.093,0.985,0.025,-3.113,-1.282,-0.427,87.358,-1.174
0.004,0.994,0.005,0.977,-4.639,-6.348,87.864,-1.111
0.012,0.966,0.002,-1.831,-5.737,-4.333,88.289,-1.039
0.038,0.987,-0.001,-1.709,-2.625,-2.258,89.277,-0.557
aX,aY,aZ,gX,gY,gZ,Roll,Pitch
0,0.981,-0.052,-8.118,-0.671,-2.869,88.965,0.798
0,0.965,-0.046,7.446,-0.183,-2.869,88.394,0.741
-0.009,0.977,-0.042,7.935,-0.488,-1.953,87.891,0.433
-0.055,0.991,-0.057,2.441,-2.93,-2.136,86.974,-0.933
0.054,0.971,-0.051,-2.136,-2.991,-3.174,87.13,-0.149
0.075,0.983,-0.054,3.54,-1.038,-1.648,86.881,0.953
0.003,0.974,-0.035,2.808,-0.61,-2.197,86.913,1.128
0.013,0.972,-0.021,5.798,-0.305,-2.197,86.81,2.138
0.015,0.977,-0.017,3.967,0.671,-1.709,87.559,1.567
0.033,0.993,-0.033,2.563,-0.122,-1.282,88.173,0.95
0.038,0.974,-0.017,5.249,-0.244,-1.221,88.048,1.455
0.067,0.968,-0.014,6.592,0.061,-1.526,87.46,2.242
0.038,0.976,0.002,3.54,0.183,-1.343,87.272,2.569
0.036,0.974,-0.006,4.089,0.244,-0.854,87.333,2.616
0.073,0.985,-0.027,0.793,0.183,0.366,86.811,3.119
0.044,0.976,0.003,2.014,0.854,-0.61,87.194,2.776
0.029,0.978,0,5.981,1.709,-1.221,87.315,2.649
0.047,0.976,-0.012,4.578,0.977,-1.16,87.145,2.808
0.066,0.965,0.008,3.479,-0.061,-0.916,87.272,2.728
0.062,0.978,0.021,3.418,0.366,0.061,86.992,2.997
0.054,0.987,-0.008,2.869,-0.549,0.488,86.646,3.351
0.048,0.981,0.005,1.16,-0.427,0.488,86.615,3.365
0.024,0.97,0.011,2.441,0.183,-0.122,87.229,2.739
0.027,0.965,0.012,3.662,0.244,0.061,87.746,2.235
0.057,0.974,0.013,2.991,0.122,-0.366,87.638,2.284
0.058,0.971,-0.011,0.61,0.366,0.366,87.524,2.448
0.042,0.977,0,2.93,1.038,-0.244,87.282,2.71
0.048,0.981,0.001,2.441,0.549,-0.122,86.995,3.004
0.062,0.986,-0.004,0.366,0.916,0,86.921,3.072
0.043,0.978,0.001,0.366,1.16,0.549,87.165,2.835
0.047,0.974,0.002,1.831,1.465,0,87.092,2.908
0.05,0.977,0.002,3.54,0.793,-0.061,87.062,2.938
0.049,0.981,0.003,1.892,0.732,0.244,87.235,2.762
0.051,0.972,0.004,3.052,1.099,-0.122,87.101,2.894
0.053,0.975,0.006,1.831,0.732,-0.244,86.996,2.996
0.043,0.979,0.001,1.831,0.488,-0.244,87.098,2.894
0.046,0.969,0.003,3.235,0.122,-0.427,87.143,2.849
0.04,0.97,0.007,2.625,-0.488,-0.427,87.307,2.681
0.047,0.975,0.001,-0.183,0,-0.366,87.416,2.578
0.045,0.986,-0.01,0.977,0.061,-0.549,87.396,2.604
0.026,0.974,0.007,4.944,-1.221,-0.061,87.687,2.312
0.046,0.982,-0.002,0.671,-1.282,-0.549,87.6,2.4
0.063,0.985,-0.013,0.732,-0.916,-0.61,87.357,2.63
0.065,0.985,-0.01,3.845,-2.197,-0.854,87.067,2.921
0.069,0.972,-0.002,-0.488,-0.427,-0.122,86.438,3.54
0.049,0.983,-0.007,2.625,0.183,2.686,86.385,3.586
0.044,0.981,-0.004,1.404,-0.122,2.991,86.67,3.314
0.072,0.994,-0.013,-4.211,-0.244,3.723,86.57,3.409
0.03,0.981,-0.016,3.479,3.113,2.808,87.105,2.837
0.03,0.985,-0.023,5.981,2.93,1.099,87.313,2.559
0.03,0.966,-0.001,2.991,1.404,-1.526,87.502,2.371
0.023,0.979,-0.008,2.441,-0.427,0.61,88.191,1.66
0.022,0.987,-0.012,-0.671,-1.221,-0.061,88.317,1.551
0.024,0.982,-0.012,4.395,-1.343,-1.343,88.456,1.465
0.027,0.983,-0.014,1.831,-1.77,-0.427,88.442,1.409
0.012,0.983,-0.023,1.892,-2.991,-0.183,88.474,1.244
0.02,0.978,-0.002,1.099,-0.427,-0.366,88.572,1.218
0.015,0.983,-0.013,2.747,0.183,-0.305,88.687,1.077
0.023,0.985,-0.01,0.549,-0.122,-0.488,88.755,1.027
0.033,0.991,-0.017,2.441,-0.366,-0.977,88.534,1.334
0.033,0.973,-0.002,2.441,0.305,0,88.361,1.52
0.017,0.987,-0.017,2.136,0.366,-0.366,88.301,1.556
0.038,0.976,-0.006,0.977,0,-0.122,88.124,1.771
0.031,0.976,-0.006,2.502,0.366,-0.183,88.19,1.751
0.044,0.986,-0.012,2.075,0.366,0.183,88.003,1.904
0.021,0.981,-0.011,1.831,0.122,-0.244,87.98,1.953
0.025,0.982,-0.009,0.977,0.305,0.183,88.145,1.767
0.029,0.973,-0.013,1.892,0.793,-0.305,88.139,1.734
0.027,0.975,-0.009,2.441,0.977,-0.183,88.374,1.498
0.022,0.977,-0.018,2.808,1.343,0.122,88.313,1.523
0.038,0.981,-0.021,3.052,0.793,-0.305,88.076,1.704
0.031,0.977,-0.014,1.465,0.122,-0.366,88.044,1.74
0.031,0.977,-0.016,2.563,0.488,15.564,87.949,1.796
0.031,0.979,-0.01,1.77,0.549,-0.061,87.877,1.929
0.003,0.982,-0.013,2.014,0.916,0,88.382,1.425
0.023,0.979,-0.018,2.38,0.488,0.244,88.463,1.294
0.03,0.986,-0.015,1.587,1.648,-0.244,88.495,1.264
0.034,0.978,-0.016,2.258,1.099,-0.427,88.42,1.298
0.028,0.974,-0.008,1.16,0.244,-0.916,88.137,1.665
0.031,0.978,-0.015,1.709,0.366,-0.244,88.04,1.79
0.016,0.981,-0.012,1.221,0.183,0.183,88.236,1.594
0.01,0.969,0.003,0.793,0.488,0.305,88.662,1.251
0.029,0.982,-0.015,3.113,0.793,0.366,88.619,1.255
0.012,0.989,-0.014,1.404,0,0.793,88.878,0.974
0.025,0.969,-0.005,4.883,1.404,1.404,88.8,1.111
0.001,0.975,-0.004,2.136,0.549,0.366,88.883,0.975
0.025,0.974,-0.011,1.892,-0.122,-0.244,88.96,0.918
-0.042,1.071,-0.065,-39.551,-7.507,-1.282,88.786,0.117
0.011,0.938,-0.036,13.855,-0.61,1.282,88.323,-0.088
0.036,0.964,-0.007,10.986,-3.54,-2.197,88.211,0.43
-0.012,0.995,-0.045,-16.724,-0.183,0.671,87.781,-0.097
0.02,0.975,-0.067,-3.174,-1.221,2.319,87.563,0.816
0.061,0.967,-0.115,6.836,1.282,0.183,86.238,1.544
0.036,0.944,-0.2,-14.038,-10.315,-0.732,83.538,1.542
aX,aY,aZ,gX,gY,gZ,Roll,Pitch
-0.108,0.994,-0.043,-1.16,-0.122,3.174,83.746,0.129
-0.028,0.98,-0.057,6.226,0.305,-2.747,83.862,-0.567
0.019,0.982,-0.053,3.418,-0.916,-1.099,84.682,-1.175
-0.007,0.985,-0.062,5.066,-1.038,-1.648,86.389,-1.798
0.042,0.974,-0.045,3.906,-0.488,-2.441,86.811,0.378
0.06,0.98,-0.042,4.639,-1.038,-1.77,86.625,1.665
0.05,0.985,-0.037,4.822,-0.671,-0.977,86.574,2.107
0.027,0.978,-0.026,4.089,-1.16,-1.221,86.596,2.612
0.023,0.975,-0.015,2.075,-0.183,-1.892,87.075,2.343
0.035,0.978,-0.018,1.404,-15.442,-1.831,87.581,1.968
0.046,0.989,-0.039,1.831,-0.122,-1.465,87.602,1.916
0.042,0.977,-0.029,3.54,0.366,-1.282,87.404,2.132
0.056,0.977,-0.033,3.845,0.244,-0.732,86.87,2.601
0.042,0.98,-0.026,2.808,-0.549,-0.183,86.716,2.707
0.045,0.98,-0.022,3.967,0.671,-0.793,86.859,2.695
0.069,0.976,-0.03,2.869,0.183,-0.732,86.501,3.095
0.052,0.978,-0.009,1.587,0.427,0.183,86.702,3.04
0.058,0.983,-0.025,2.441,0.977,-0.366,86.493,3.271
0.059,0.98,-0.026,2.014,-0.061,0.061,86.286,3.473
0.048,0.979,-0.021,2.258,0.305,0.305,86.62,3.17
0.051,0.973,-0.028,3.784,0.366,-0.305,86.524,3.159
0.053,0.977,-0.024,4.272,-0.183,-0.183,86.591,3.095
0.053,0.974,-0.016,2.075,0.61,-0.122,86.727,3.007
0.051,0.971,-0.018,3.54,0.854,0,86.697,3.051
0.051,0.977,-0.011,2.563,0.671,0.305,86.787,3.045
0.044,0.983,-0.015,2.319,1.099,-0.061,86.961,2.904
0.046,0.98,-0.015,1.831,0.977,-0.366,87.068,2.798
0.059,0.982,-0.015,2.258,0.977,-0.366,86.974,2.912
0.053,0.982,-0.016,2.38,0.793,-0.549,86.92,2.95
0.041,0.98,-0.01,1.892,0.916,-0.305,86.979,2.907
0.049,0.981,-0.017,2.747,0.977,-0.122,86.93,2.95
0.043,0.984,-0.02,1.587,0.916,-0.122,87.136,2.712
0.037,0.978,-0.015,2.136,0.732,-0.305,87.355,2.483
0.052,0.981,-0.015,1.038,0.488,-0.305,87.171,2.653
0.057,0.969,-0.014,2.686,0.183,-0.183,87.062,2.783
0.054,0.969,-0.014,2.869,0.244,-0.366,86.924,2.955
0.048,0.979,-0.016,2.991,-0.122,-0.732,86.775,3.106
0.055,0.976,-0.019,0.977,-0.427,0.305,86.725,3.143
0.051,0.975,-0.013,3.906,-0.793,0.305,86.821,3.046
0.043,0.976,-0.017,2.808,-0.732,-0.488,86.97,2.876
0.046,0.979,-0.018,1.587,-0.366,-0.122,86.989,2.846
0.059,0.972,-0.02,0.305,-0.305,0.732,86.925,2.906
0.054,0.981,-0.024,-0.488,-1.282,-0.549,86.834,2.946
0.066,0.982,-0.033,2.197,-0.854,-0.61,86.436,3.278
0.052,0.984,-0.031,0.366,0.427,0.732,86.277,3.368
0.043,0.981,-0.03,4.211,0.183,1.282,86.421,3.134
0.037,0.969,-0.024,2.38,0.122,3.418,86.623,2.895
0.089,0.984,-0.032,2.625,-0.488,2.014,86.343,3.231
0.05,0.984,-0.029,3.784,1.709,0.916,86.387,3.197
0.019,0.971,-0.016,8.362,1.587,1.892,86.783,2.856
0.026,0.981,-0.015,6.531,1.587,1.221,86.996,2.691
0.041,0.973,-0.006,7.202,0.793,-1.16,87.79,1.988
0.043,0.982,0,0,0.671,0.671,88.04,1.887
0.025,0.979,-0.004,2.197,0.061,-0.183,87.995,1.975
0.014,0.978,0.001,1.465,-0.61,-0.305,88.195,1.801
0.028,0.984,-0.01,3.662,-0.427,-0.366,88.374,1.616
0.024,0.983,-0.004,2.808,-0.732,-0.366,88.633,1.345
0.027,0.975,0,2.38,-0.305,-0.183,88.613,1.375
0.033,0.975,0.004,2.747,-0.244,-0.122,88.345,1.649
0.031,0.978,0.002,1.587,-0.732,-0.061,88.303,1.696
0.024,0.978,0.01,0.61,-0.305,-0.061,88.285,1.699
0.021,0.982,-0.002,2.319,-0.244,-0.305,88.379,1.61
0.027,0.98,0,2.258,0.366,0.183,88.466,1.527
0.018,0.981,0.002,0.854,-0.122,0.061,88.663,1.329
0.035,0.98,0,2.136,0.366,-0.305,88.521,1.479
0.035,0.982,-0.002,0.977,-0.305,-0.061,88.325,1.675
0.026,0.982,0.003,0.854,15.564,-0.183,88.35,1.649
0.029,0.977,0.001,1.953,-0.061,-0.305,88.189,1.811
0.038,0.977,-0.003,3.784,0.916,-0.61,88.14,1.859
0.024,0.982,-0.004,1.16,0.061,-0.61,88.298,1.701
0.031,0.982,-0.008,2.991,-0.122,-0.916,88.202,1.785
0.038,0.982,-0.007,1.038,-0.061,-0.305,88.049,1.921
0.026,0.978,-0.005,1.587,0.61,0.061,88.213,1.75
0.028,0.978,-0.006,1.648,-0.061,-0.061,88.144,1.815
0.021,0.974,-0.005,1.16,0.244,0.122,88.296,1.669
0.027,0.984,-0.012,1.282,0.366,-0.122,88.443,1.5
0.026,0.978,-0.005,2.075,0.427,0,88.444,1.499
0.028,0.974,-0.007,2.869,0.244,-0.244,88.443,1.497
0.03,0.984,-0.009,1.526,0,0.61,88.297,1.63
0.019,0.979,-0.013,0.916,0.244,0.427,88.405,1.513
0.032,0.985,-0.015,1.16,0.244,0.366,88.276,1.597
0.029,0.981,-0.022,0.366,0.488,0.488,88.171,1.611
0.029,0.983,-0.019,2.014,0,0,88.117,1.59
0.029,0.983,-0.021,1.099,0.061,0.183,87.932,1.733
0.006,0.975,-0.021,0.488,-0.732,0.305,88.18,1.351
0.011,0.984,-0.029,0.916,0.061,0.61,88.292,1.085
0.021,0.978,-0.037,1.099,0.122,0.183,88.137,0.972
0.008,0.981,-0.03,-0.061,-0.427,0.244,88.156,0.664
0.001,0.974,-0.029,2.319,-0.244,0.732,88.073,0.601
0.024,0.998,-0.035,-4.211,1.16,2.014,87.933,0.791
-0.017,0.954,-0.051,1.099,0.732,-6.104,87.87,0.236
0.117,0.936,-0.043,0.977,8.362,-1.099,87.014,1.86
-0.018,0.994,-0.071,7.263,-7.568,1.892,86.663,1.56
-0.051,1.007,-0.029,21.057,4.089,-12.329,87.108,0.443
0.042,0.951,-0.008,10.254,-3.54,-4.089,87.41,1.321
0.033,0.99,-0.03,-0.916,4.15,7.446,87.996,0.08
0.056,0.975,-0.07,-15.015,-6.714,-3.235,87.692,1.169
aX,aY,aZ,gX,gY,gZ,Roll,Pitch
0.06,0.979,-0.005,-1.16,-8.606,0.732,86.485,3.503
0.024,0.965,0.001,3.418,1.953,2.014,87.531,2.466
0.034,1.002,-0.007,-4.944,0.732,0.916,87.703,2.287
0.032,0.981,0.003,0.61,0.183,0.122,87.808,2.189
0.038,1.009,0.003,0.854,-2.38,0.732,88.146,1.854
-0.069,0.927,-0.121,-1.587,1.282,0.916,88.157,0.508
0.023,0.971,0.022,-1.16,1.831,1.709,88.587,0.352
0.06,0.983,0.001,-1.465,1.709,0.854,88.412,0.758
0.062,0.977,0.001,1.343,2.197,0.854,88.177,1.118
0.058,0.975,0.004,0.854,1.953,0.977,87.008,2.966
0.029,0.987,0.061,0.977,2.38,0.854,86.816,3.033
0.021,0.982,0.001,0.671,2.014,0.854,87.355,2.465
0.045,0.977,0.007,1.16,2.563,0.854,87.537,2.224
0.024,0.978,0.005,1.404,2.563,0.61,87.956,1.735
0.043,0.976,0.006,0.61,1.77,0.671,88.028,1.951
0.02,0.983,0.013,0.732,1.526,0.854,88.008,1.938
0.027,0.982,0.011,0.916,2.258,1.038,88.248,1.674
0.038,0.976,0.009,0.366,1.709,1.038,88.032,1.883
0.032,0.98,0.009,0.305,1.709,0.854,88.172,1.724
0.022,0.98,0.011,0.427,1.648,0.916,88.152,1.756
0.036,0.975,0.002,0.183,0.61,0.732,88.058,1.893
0.033,0.983,0,0.732,0.793,0.793,88.168,1.806
0.038,0.977,0.001,0.854,0.671,0.671,88.094,1.896
0.028,0.977,0.002,1.099,0.427,0.61,88.017,1.982
0.021,0.984,0,0.61,0.427,0.854,88.239,1.76
0.03,0.98,0,0.366,0.244,0.793,88.277,1.722
0.029,0.974,0.002,0.305,0.854,0.732,88.416,1.583
0.027,0.973,0.001,0.977,1.282,0.793,88.433,1.566
0.026,0.983,-0.004,0.732,1.587,0.977,88.374,1.626
0.025,0.98,0,0.183,1.404,1.038,88.444,1.556
0.027,0.979,-0.012,0.122,1.892,0.977,88.457,1.529
0.026,0.973,-0.001,-1.648,-1.343,1.343,88.459,1.522
0.025,0.977,-0.02,0.488,-0.671,0.793,88.405,1.521
0.004,0.987,-0.019,0.916,0.732,0.854,88.578,1.207
-0.033,0.981,0.014,2.38,1.404,0.916,89.5,0.33
0.209,0.961,-0.042,-2.747,-0.122,1.221,86.832,3.013
0.018,0.964,-0.005,3.052,0.61,1.16,86.986,2.916
0.017,0.972,-0.011,1.831,0.305,0.427,86.808,3.125
0.02,0.982,-0.019,0.549,0.061,0,85.934,3.904
0.019,0.98,-0.017,0.488,0.488,0.549,88.662,1.101
0.02,0.98,-0.017,0.244,0.366,0.549,88.536,1.122
0.018,0.983,-0.019,0.488,0.244,0.61,88.458,1.123
0.02,0.982,-0.016,0.488,0.427,0.854,88.49,1.117
0.021,0.974,-0.015,0.793,0.488,0.977,88.485,1.14
0.02,0.979,-0.02,0.977,0.366,0.732,88.46,1.144
0.019,0.981,-0.019,-0.183,0.427,0.61,88.448,1.168
0.02,0.981,-0.019,0.61,0.427,0.732,88.422,1.168
0.021,0.978,-0.017,1.099,0.427,1.099,88.405,1.172
0.02,0.984,-0.021,0.183,0.305,0.488,88.389,1.176
0.02,0.974,-0.014,0.244,0.488,0.916,88.417,1.194
0.017,0.978,-0.018,0.793,0.427,0.854,88.451,1.163
0.02,0.976,-0.016,1.099,0.427,0.854,88.474,1.144
0.02,0.98,-0.019,0.793,0.305,0.61,88.5,1.138
0.017,0.981,-0.019,0.732,0.366,0.671,88.484,1.093
0.018,0.98,-0.017,0.305,0.305,0.671,88.489,1.094
0.02,0.975,-0.017,1.16,0.427,0.549,88.473,1.096
0.021,0.984,-0.023,1.221,0.305,0.488,88.42,1.107
0.02,0.973,-0.013,0.732,0.549,0.732,88.459,1.14
0.02,0.976,-0.017,1.648,0.366,0.671,88.432,1.179
0.019,0.983,-0.02,0.366,0.427,0.671,88.419,1.168
0.019,0.983,-0.019,0.122,0.305,0.61,88.478,1.139
0.02,0.975,-0.012,1.709,0.732,0.732,88.489,1.141
0.01,0.982,-0.013,0.854,2.747,0.61,88.638,0.987
0.105,0.977,-0.009,1.648,-0.488,0.549,87.624,2.242
0.053,0.978,-0.009,1.831,1.77,0.488,87.182,2.744
0.012,0.984,0,0.122,-2.991,0.61,87.327,2.631
0.037,0.979,-0.007,-0.244,-5.127,0.854,86.951,3.025
0.027,0.978,-0.003,1.099,-2.747,0.549,88.099,1.881
0.017,0.979,-0.008,1.404,-2.38,0.427,88.617,1.358
0.025,0.979,-0.007,0.977,-1.526,0.549,88.407,1.549
0.039,0.974,-0.001,0.183,-1.953,0.61,88.384,1.592
0.021,0.979,-0.006,-0.122,-4.15,0.793,88.451,1.515
0.019,0.983,-0.01,0.305,-1.77,0.671,88.424,1.538
0.012,0.98,-0.003,0.793,-0.183,0.671,88.632,1.339
0.014,0.979,-0.007,0.488,-0.366,0.732,88.961,0.968
0.014,0.979,-0.006,0.793,-0.916,0.732,89.062,0.861
0.025,0.981,-0.026,1.038,-0.793,0.488,88.864,0.953
0.051,0.977,-0.011,1.526,0.61,0.549,88.3,1.528
0.022,0.976,-0.006,1.526,1.282,0.061,88.209,1.638
0.012,0.979,-0.001,1.587,0.305,0.183,88.262,1.612
0.031,0.976,-0.002,1.343,0.183,0.488,88.276,1.7
0.032,0.979,-0.004,1.343,-0.366,0.366,88.565,1.424
0.024,0.98,-0.003,1.221,0.183,0.488,88.54,1.452
0.054,0.976,-0.001,0.549,-0.183,0.61,87.924,2.07
0.037,0.976,-0.007,0.854,-1.099,0.305,87.827,2.161
-0.009,0.988,0.007,0.549,-1.587,0.488,88.445,1.554
0.078,0.976,-0.025,0.183,-4.517,0.61,87.629,2.342
0.01,0.985,0.005,1.709,0.122,0.366,88.29,1.686
0.026,0.98,0.004,1.648,2.441,0.488,88.477,1.518
0.075,0.975,-0.009,1.099,1.587,0.366,87.225,2.751
0.014,0.98,-0.002,-1.038,-1.587,0.977,88.173,1.827
0.006,0.995,0.002,-3.296,-6.348,1.892,88.225,1.774
0.026,0.981,-0.004,-1.282,0.793,-0.305,88.218,1.771
0.026,0.975,-0.002,3.479,0.061,-0.488,88.931,1.065
0.029,0.977,-0.01,-1.587,0.61,1.343,88.701,1.283
0.032,0.991,-0.025,-1.77,-0.305,0.549,88.238,1.659
0.025,0.986,-0.018,-0.977,-3.113,1.038,88.171,1.644
aX,aY,aZ,gX,gY,gZ,Roll,Pitch
0.021,1,-0.022,3.418,-7.812,0.977,88.108,1.552
0.022,1.162,0.082,12.573,17.822,-0.427,88.593,1.387
0.03,0.988,-0.009,1.953,0.366,0.549,88.562,1.361
0.032,0.98,-0.002,2.014,0,0.183,88.375,1.468
0.033,0.995,0,5.127,-4.15,0.305,88.083,1.636
-0.06,0.953,-0.009,2.258,2.014,0.61,89.408,0.518
0.052,0.969,0.013,1.892,3.54,0.854,89.156,0.843
0.063,0.979,0.028,1.77,5.31,1.038,88.621,1.299
0.042,0.98,0.016,1.404,3.845,0.916,88.401,1.443
0.054,0.983,0.02,0.916,3.418,1.038,86.706,3.099
0.019,0.978,0.022,0.793,2.991,0.977,87.105,2.61
0.028,0.975,0.028,1.282,3.235,1.16,87.556,2.092
0.042,0.976,0.016,1.099,2.014,0.977,87.561,2.083
0.023,0.978,0.016,0.671,1.77,0.916,87.968,1.632
0.031,0.978,0.019,0.977,2.502,0.793,87.851,1.809
0.061,0.979,0.019,0.854,2.014,0.977,87.495,2.286
0.035,0.974,0.019,1.221,2.441,0.977,87.562,2.192
0.016,0.98,0.023,1.587,2.197,0.671,87.607,2.086
0.025,0.976,0.026,1.343,2.502,0.671,87.632,1.994
0.033,0.978,0.026,1.221,2.197,0.671,87.895,1.592
0.035,0.978,0.024,0.916,1.099,0.793,87.85,1.585
0.044,0.977,0.022,0.366,1.099,0.793,87.541,2.001
0.043,0.979,0.02,0.549,1.892,0.854,87.368,2.263
0.014,0.982,0.026,0.977,1.77,0.977,87.608,1.986
0.033,0.98,0.02,0.854,1.587,0.854,87.654,1.966
0.038,0.98,0.016,0.488,0.977,0.793,87.773,1.874
0.036,0.977,0.025,-0.122,0.305,0.732,87.808,1.782
0.025,0.978,0.021,-0.183,-0.61,0.977,87.718,1.934
0.041,0.979,0.02,-0.305,-0.305,0.977,87.623,2.05
0.023,0.979,0.009,0.61,0.366,0.671,87.86,1.84
0.039,0.98,0.017,0.549,1.526,0.671,87.88,1.882
0.014,0.979,0.024,0.732,1.831,0.977,87.991,1.727
0.01,0.977,0.012,0.427,1.038,0.793,88.443,1.264
0.028,0.981,0.008,-0.183,0.122,0.854,88.398,1.33
0.083,0.976,0,-1.831,-0.122,1.038,87.922,1.976
0.022,1.006,-0.005,-3.235,0.671,1.526,87.905,2.085
0.023,0.971,0.006,0.183,0.732,1.099,87.712,2.285
0.023,0.98,0.001,1.282,0.488,0.793,87.793,2.207
0.022,0.981,0.001,0.427,0.488,0.549,88.684,1.316
0.024,0.976,0.001,1.526,0.427,0.732,88.648,1.345
0.025,0.981,0,0.061,0.488,0.61,88.627,1.372
0.024,0.978,0.001,0.671,0.366,0.732,88.601,1.398
0.023,0.977,0.001,0.244,0.427,0.977,88.589,1.41
0.023,0.981,-0.001,0.671,0.488,0.854,88.604,1.396
0.022,0.982,-0.002,0.061,0.366,0.671,88.649,1.351
0.023,0.976,0,1.038,0.488,0.977,88.669,1.33
0.023,0.981,-0.003,0.977,0.366,0.732,88.672,1.325
0.023,0.981,-0.001,0.488,0.305,0.61,88.677,1.32
0.023,0.977,0,0.854,0.366,0.916,88.663,1.336
0.023,0.98,-0.002,0.977,0.427,0.61,88.653,1.343
0.021,0.983,-0.005,0.244,0.488,0.61,88.672,1.321
0.023,0.975,0,1.282,0.549,0.793,88.666,1.331
0.022,0.982,-0.005,1.16,0.488,0.549,88.673,1.315
0.023,0.977,0,0.671,0.549,0.549,88.687,1.303
0.023,0.98,-0.002,0.671,0.488,0.61,88.671,1.324
0.023,0.979,-0.004,1.038,0.244,0.671,88.673,1.316
0.021,0.984,-0.008,0,0.183,0.732,88.691,1.294
0.023,0.974,-0.001,1.038,0.488,0.854,88.68,1.303
0.02,0.986,-0.008,0.977,0.244,0.549,88.704,1.264
0.019,0.977,-0.003,0.427,0.488,0.916,88.752,1.214
0.023,0.978,-0.004,0.916,0.549,0.793,88.73,1.247
0.024,0.995,-0.009,1.404,0.61,0.732,88.699,1.249
0.188,1.034,-0.07,0.549,-0.732,1.038,86.144,3.646
0.023,0.98,0,1.831,0.061,0.549,86.113,3.698
0.019,0.983,-0.008,1.038,-2.197,0.671,86.149,3.643
0.02,0.977,0.001,0.854,-1.831,0.671,86.227,3.609
0.015,0.976,0,1.404,-1.892,0.488,88.858,1.138
0.008,0.978,0.001,1.038,-0.61,0.488,89.081,0.915
0.017,0.977,0.001,0.916,-0.854,0.61,89.12,0.879
0.035,0.98,0.001,0.977,-0.427,0.732,88.904,1.096
0.024,0.979,0.005,0.977,-0.61,0.488,88.768,1.227
0.022,0.978,0.003,1.221,-1.526,0.61,88.55,1.443
0.02,0.981,0.002,1.038,-1.892,0.427,88.497,1.496
0.028,0.978,0.002,1.221,-1.587,0.549,88.596,1.393
0.016,0.982,0.004,0.916,-1.099,0.427,88.722,1.269
0.015,0.979,0.005,1.587,-0.183,0.366,88.832,1.152
0.026,0.978,0.006,1.038,0.427,0.61,88.734,1.239
0.053,0.979,0.001,0.549,-1.709,0.549,88.382,1.601
0.016,0.982,0.011,0.549,-1.587,0.549,88.365,1.599
0.022,0.978,0.003,0.61,-1.099,0.549,88.263,1.71
0.039,0.977,0,0.854,-0.671,0.366,88.093,1.896
0.017,0.977,0.001,0.488,-1.221,0.732,88.617,1.367
0.008,0.979,-0.003,0.854,-1.587,0.61,88.748,1.252
0.015,0.984,0.003,0.732,-1.343,0.671,88.852,1.148
0.084,0.971,-0.009,0.793,-1.038,0.427,88.187,1.809
0.008,0.982,0.008,1.526,2.808,0.427,88.32,1.68
0.014,0.981,0.003,-0.244,-1.892,0.793,88.232,1.766
0.02,0.982,0.008,0.854,-2.563,0.793,88.154,1.841
0.036,0.974,-0.003,0.488,-2.258,0.732,88.838,1.138
0.018,0.982,-0.003,1.282,0.061,0.488,88.717,1.281
0.043,0.982,0.001,0.61,0.061,0.916,88.293,1.707
0.076,0.977,-0.019,0.366,-2.075,0.488,87.454,2.523
0.01,0.983,0.002,0.854,-0.671,0.488,87.835,2.147
0.035,1.007,-0.013,-1.465,0.061,-0.916,87.587,2.376
0.034,0.971,0.006,2.563,0.122,0.61,87.725,2.248
0.028,0.935,0.036,-3.357,1.404,3.479,88.364,1.572
0.038,0.979,-0.002,-3.54,0.488,1.77,87.983,1.98
0.029,0.973,-0.003,1.343,-2.197,-0.366,88.013,1.909
0.029,0.99,-0.021,-1.221,-2.502,0.061,88.161,1.832
0.03,0.979,-0.016,1.038,-3.235,-0.61,88.072,1.831
aX,aY,aZ,gX,gY,gZ,Roll,Pitch
0.077,1.122,0.067,-1.953,-5.676,-1.709,87.657,2.31
0.021,1.01,-0.01,6.348,10.193,2.441,87.801,2.182
0.03,0.989,-0.009,2.563,0.488,0.427,87.759,2.198
0.032,0.981,0,1.587,0.366,0.122,87.67,2.236
0.043,0.976,-0.003,3.418,-0.61,-0.488,88.142,1.829
0.041,0.969,0.014,5.493,-1.587,-0.854,87.857,2.143
-0.017,0.981,0.001,1.282,3.174,0.793,88.534,1.455
0.033,0.98,0.016,0.916,4.822,1.343,88.484,1.461
0.089,0.979,0.024,1.16,4.7,1.038,87.729,2.128
0.039,0.98,0.026,0.122,2.808,0.854,87.69,2.099
0.036,0.976,0.016,1.099,3.296,0.854,86.885,2.878
0.046,0.978,0.019,0.549,2.014,0.732,86.682,3.08
0.021,0.978,0.022,1.16,1.831,0.854,87.589,2.087
0.021,0.977,0.018,1.526,1.831,0.671,87.882,1.815
0.035,0.976,0.017,1.282,1.709,0.854,87.892,1.792
0.06,0.978,0.019,0.916,1.038,0.977,87.721,1.987
0.037,0.977,0.017,1.221,1.648,0.854,87.533,2.23
0.021,0.982,0.024,1.038,2.136,0.854,87.493,2.231
0.054,0.979,0.031,0.854,1.77,0.977,87.148,2.514
0.047,0.975,0.021,1.221,1.282,0.977,87.291,2.334
0.017,0.979,0.017,0.977,1.648,0.732,87.549,2.037
0.019,0.984,0.022,0.61,1.587,0.854,87.591,2.012
0.05,0.981,0.015,0.793,0.122,0.793,87.767,1.951
0.036,0.98,0.02,1.16,1.343,0.854,87.917,1.787
0.03,0.977,0.021,1.099,0.916,0.732,87.719,1.978
0.039,0.977,0.021,0.732,1.038,0.854,87.461,2.274
0.034,0.978,0.021,0.732,0.916,0.671,87.622,2.042
0.028,0.979,0.021,0.916,0.916,0.671,87.714,1.929
0.031,0.984,0.02,0.854,0.916,0.793,87.719,1.935
0.026,0.982,0.023,0.916,0.916,0.732,87.869,1.74
0.032,0.976,0.022,0.671,0.61,0.916,87.875,1.718
0.017,0.977,0.017,0,-0.916,0.854,88.036,1.551
0.026,0.981,0.013,0,-0.916,0.854,88.152,1.486
0.027,0.98,0.013,0.61,0.305,0.671,88.227,1.495
0.028,0.98,0.025,0.854,1.709,0.671,88.26,1.435
0.033,0.979,0.019,1.038,1.77,0.793,88.052,1.667
0.015,0.972,0.027,0.671,1.221,1.099,88.059,1.514
0.063,0.986,-0.002,-1.343,-2.38,0.732,87.724,2.041
0.027,0.98,0.01,-0.854,0.732,1.709,87.831,2.018
0.028,0.98,0.008,1.404,0.61,0.977,87.946,1.954
0.024,0.985,0.006,0.061,0.427,0.854,87.905,2.07
0.026,0.975,0.009,1.282,0.488,0.916,88.388,1.537
0.025,0.984,0.005,0.488,0.488,0.732,88.433,1.514
0.025,0.978,0.007,0.916,0.427,0.793,88.482,1.467
0.025,0.977,0.007,0.61,0.488,0.671,88.457,1.488
0.028,0.98,0.005,1.16,0.427,0.671,88.453,1.509
0.027,0.981,0.004,0.732,0.366,0.671,88.435,1.528
0.026,0.976,0.007,1.343,0.427,0.793,88.423,1.542
0.025,0.98,0.003,1.038,0.305,0.793,88.437,1.537
0.025,0.98,0.005,0.732,0.427,0.671,88.473,1.5
0.026,0.978,0.005,0.549,0.427,0.854,88.478,1.492
0.026,0.978,0.004,1.099,0.427,0.732,88.49,1.487
0.025,0.981,0.004,1.099,0.305,0.61,88.479,1.498
0.025,0.981,0.003,0.366,0.488,0.671,88.486,1.496
0.025,0.98,0.003,1.038,0.244,0.61,88.51,1.477
0.025,0.979,0.004,0.854,0.366,0.549,88.527,1.461
0.025,0.979,0.004,0.854,0.366,0.977,88.536,1.453
0.024,0.978,0.005,0.916,0.366,0.854,88.544,1.439
0.024,0.981,0.002,0.854,0.427,0.488,88.56,1.425
0.026,0.977,0.003,0.671,0.305,0.732,88.544,1.441
0.026,0.975,0.006,1.587,0.305,0.732,88.52,1.459
0.026,0.981,0.003,0.977,0.244,0.671,88.504,1.481
0.025,0.975,0.005,0.977,0.488,0.488,88.477,1.501
0.024,0.98,0.001,1.587,0.671,0.854,88.506,1.477
0.031,0.974,0.005,0.366,2.38,0.671,88.435,1.55
0.085,0.974,0.001,1.282,-1.77,0.671,87.568,2.425
0.026,0.98,0.002,1.099,-1.404,0.61,87.56,2.436
0.026,0.977,-0.002,1.099,-2.075,0.549,87.539,2.46
0.041,0.981,0.005,0.977,-1.709,0.61,87.395,2.604
0.013,0.98,0.006,1.465,-1.221,0.427,88.448,1.546
0.013,0.979,0.007,1.221,-1.343,0.549,88.622,1.361
0.043,0.979,0.008,1.16,-1.831,0.61,88.346,1.613
0.061,0.98,0.007,1.038,-1.892,0.671,88.059,1.899
0.025,0.98,0.01,0.916,-0.488,0.61,87.869,2.079
0.001,0.983,0.006,0.549,-0.732,0.488,88.051,1.897
0.008,0.981,0.004,0.244,-1.587,0.793,88.559,1.387
0.037,0.976,0.001,0.183,-2.441,0.732,88.913,1.044
-0.001,0.983,0.004,1.038,-0.916,0.488,89.314,0.653
0.026,0.98,0,0.916,-1.282,0.549,88.974,1.019
0.058,0.972,-0.019,1.953,2.441,0.305,88.23,1.757
0.008,0.981,0.012,1.648,3.174,0.61,88.661,1.338
0.026,0.982,0,-0.061,1.16,0.793,88.259,1.738
0.024,0.979,0.005,0.61,1.038,0.427,88.295,1.705
0.023,0.984,0.007,1.77,3.174,0.488,88.76,1.19
0.026,0.982,0.013,1.282,2.625,0.61,88.504,1.45
0.012,0.979,0.011,0.854,0.427,0.671,88.647,1.246
0.048,0.979,0.002,1.221,0.854,0.549,88.321,1.604
0.029,0.982,0.008,0.61,0.427,0.427,88.244,1.683
0.021,0.976,0,0.854,-0.244,0.61,88.361,1.609
0.031,0.978,0.007,1.038,0.305,0.671,88.101,1.881
0.046,0.976,0.001,0.671,0.366,0.549,88.139,1.846
-0.005,0.983,0.013,1.038,0.916,0.549,88.613,1.349
0.059,0.979,0.004,0.671,-0.183,0.671,88.065,1.9
0.036,0.976,0.001,0.122,-2.075,0.549,87.996,1.986
-0.041,0.981,0.013,-1.77,-4.089,0.793,89.16,0.716
0.033,0.973,0.002,-0.183,1.038,1.77,88.696,1.273
0.03,0.981,-0.002,-0.61,0.61,0.854,89.122,0.856
0.022,0.999,-0.005,-4.517,0.061,2.197,89.346,0.643
0.033,0.977,-0.019,-0.61,-0.671,1.038,88.246,1.72
0.029,0.982,-0.012,0.183,-2.563,0.244,88.251,1.658
0.031,0.976,-0.013,0.366,-3.54,-0.305,88.181,1.673
aX,aY,aZ,gX,gY,gZ,Roll,Pitch
0.03,0.987,-0.031,1.038,-5.554,1.038,87.896,1.797
0.03,1.012,-0.015,9.705,17.639,3.052,87.977,1.741
0.035,0.992,-0.009,0.854,0.549,0.366,87.932,1.819
0.038,0.98,0,2.075,0.183,0.061,87.929,1.912
0.022,0.995,0.011,4.761,-1.526,-0.488,88.204,1.785
0.002,0.979,0.005,1.709,-4.028,0.732,88.602,1.395
0.087,0.976,0.029,1.587,0.671,0.854,87.733,2.17
0.027,0.979,0.017,2.38,1.038,0.671,87.798,2.009
0.046,0.974,0.022,1.892,2.197,0.732,87.4,2.374
0.063,0.978,0.024,0.732,1.282,0.854,86.473,3.265
0.168,1.079,0.283,1.038,0.244,1.038,83.463,4.312
0.026,0.978,0.031,1.648,2.38,0.916,83.315,4.306
0.032,0.976,0.025,1.526,3.418,1.038,83.402,4.105
0.049,0.973,0.027,1.221,4.089,1.038,83.48,3.908
0.056,0.979,0.036,1.16,3.357,1.221,87.044,2.385
0.04,0.978,0.033,0.977,4.028,1.282,86.868,2.582
0.049,0.974,0.032,0.732,2.747,1.038,86.611,2.829
0.048,0.981,0.026,0.732,1.648,0.732,86.626,2.818
0.032,0.982,0.029,1.099,0.732,0.732,86.973,2.461
0.024,0.978,0.034,1.282,1.038,0.916,87.143,2.235
0.043,0.979,0.04,1.404,1.953,0.793,87.125,2.156
0.047,0.97,0.033,1.648,2.502,0.61,87.069,2.135
0.04,0.976,0.031,1.221,0.854,0.61,86.962,2.254
0.045,0.981,0.034,0.854,0.916,0.793,86.742,2.55
0.024,0.979,0.033,1.404,0.916,0.671,87.037,2.259
0.034,0.979,0.038,1.16,0.916,0.916,87.139,2.066
0.043,0.978,0.031,0.793,0.671,0.671,87.103,2.121
0.035,0.975,0.034,0.671,0.427,0.793,87.203,1.978
0.042,0.978,0.029,0.732,0.732,0.854,87.044,2.244
0.025,0.976,0.032,0.916,-0.549,0.793,87.19,2.124
0.01,0.981,0.027,0.305,-2.319,0.61,87.578,1.642
0.018,0.979,0.04,0.671,-2.319,0.671,87.671,1.393
0.047,0.972,0.023,4.15,6.165,-0.122,87.693,1.47
0.111,0.984,0.013,-1.404,-0.793,0.916,86.895,2.717
0.035,0.994,0.028,-1.953,0.366,0.916,86.587,3.059
0.023,0.991,0.036,-0.366,0.244,0.427,86.554,3.128
0.034,0.972,0.033,1.648,0.427,1.099,86.656,2.937
0.039,0.98,0.03,1.16,0.549,0.671,87.361,1.896
0.038,0.98,0.03,0.183,0.427,0.732,87.299,1.945
0.032,0.977,0.03,1.465,0.366,0.732,87.239,2.091
0.034,0.98,0.03,-0.488,0.61,0.854,87.276,2.085
0.036,0.969,0.034,2.686,0.366,0.732,87.255,2.054
0.034,0.984,0.028,1.099,0.366,0.549,87.321,1.996
0.031,0.981,0.031,-0.305,0.549,0.671,87.331,1.973
0.034,0.972,0.032,-0.061,0.549,0.916,87.3,1.979
0.034,0.977,0.029,1.465,0.366,0.916,87.383,1.936
0.033,0.992,0.022,1.282,0.183,0.427,87.451,1.923
0.033,0.969,0.037,-0.244,0.366,1.16,87.369,1.955
0.032,0.97,0.033,2.197,0.366,0.793,87.376,1.933
0.035,0.976,0.031,1.16,0.427,0.793,87.346,1.95
0.035,0.984,0.026,0.549,0.305,0.427,87.28,1.98
0.033,0.975,0.032,-0.732,0.488,0.977,87.325,1.979
0.035,0.941,0.033,2.075,0.488,0.916,87.277,2.035
0.033,0.993,0.022,1.77,0.122,0.183,87.397,1.999
0.027,0.992,0.03,-2.441,0.488,0.854,87.454,1.876
0.03,0.975,0.035,-0.854,0.61,0.854,87.458,1.831
0.054,0.974,0.015,0.61,1.16,0.366,87.43,2.093
0.027,0.989,0.023,-1.465,1.404,1.099,87.493,2.001
-0.09,0.916,-0.125,-0.854,-0.732,1.709,89.167,0.31
0.016,0.988,0.019,0.671,0,0.916,88.987,0.11
0.096,0.975,0.007,-0.061,-1.77,0.732,88.656,0.727
-0.004,0.984,0.025,0.244,-1.099,0.671,88.864,0.272
-0.013,0.981,0.011,0.366,-2.808,0.671,88.348,1.382
0.044,0.976,0.015,0.488,-2.869,0.549,88.018,1.794
0.015,0.983,0.012,0.122,-3.723,0.488,88.9,0.611
0.049,0.98,0.013,0.671,-3.052,0.427,88.425,1.388
0.018,0.979,0.015,1.16,-2.136,0.488,87.986,1.849
0.021,0.979,0.015,1.404,-2.136,0.305,88.291,1.512
0.028,0.979,0.012,0.977,-1.404,0.366,88.122,1.703
0.036,0.979,0.012,0.549,-0.854,0.549,88.306,1.507
0.037,0.978,0.016,0.366,-0.854,0.488,88.052,1.778
0.044,0.98,0.006,0.732,-1.892,0.549,87.79,2.106
0.005,0.98,0.013,1.343,0.061,0.671,88.097,1.774
0.061,0.979,0.004,1.16,0.183,0.61,87.774,2.148
0.032,0.976,0.017,1.709,2.808,0.488,87.84,2.075
0.017,0.981,0.02,-0.244,-1.343,0.61,88.132,1.687
0.033,0.98,0.012,0.61,-1.709,0.549,87.761,2.099
0.062,0.981,0.011,0.488,-2.441,0.488,87.708,2.118
0.033,0.979,0.005,1.16,-0.183,0.488,87.751,2.138
0.015,0.981,0.012,0.977,0.671,0.488,87.822,2.097
0.09,0.979,-0.009,0.61,-0.488,0.793,87.056,2.929
0.022,0.982,0.027,0.977,0.854,0.732,87.6,2.343
0.026,0.98,0.013,-0.061,-2.563,0.732,87.672,2.24
0.057,0.975,0.001,0.61,-2.808,0.427,87.093,2.87
-0.002,0.981,0.021,0.61,-2.38,0.61,88.236,1.52
0.05,0.977,0.01,0.671,-1.16,0.793,87.971,1.924
0.022,0.984,0.014,1.404,2.014,0.488,88.02,1.867
0.048,0.98,0.015,0.549,-1.343,0.61,88.063,1.729
0.066,0.973,0.01,-0.793,-3.967,0.671,87.185,2.724
-0.066,0.981,0.016,1.038,1.709,1.038,88.686,1.034
0.038,0.979,0.006,-0.793,0.854,1.16,88.558,1.262
0.037,0.978,0.003,0.854,0.427,1.16,88.787,1.096
0.035,0.98,0.001,-0.549,0.732,1.343,89.247,0.641
0.031,0.984,0.001,-1.16,-0.427,1.282,87.946,2.047
0.034,0.989,-0.009,1.709,-5.676,-0.977,88.022,1.978
aX,aY,aZ,gX,gY,gZ,Roll,Pitch
0.038,0.949,-0.01,7.874,-2.93,-1.404,87.969,2.015
0.02,1.044,0.028,8.667,15.747,2.319,88.217,1.777
0.036,0.979,0.006,1.892,0.366,0.732,88.124,1.864
0.037,0.982,0.005,1.282,-0.122,-0.122,88.034,1.924
0.048,0.98,0.014,3.296,-0.305,-0.061,87.815,2.049
0.164,1.123,0.277,0.671,-4.333,-0.793,84.152,4.016
0.056,1.018,0.144,2.319,-0.732,0.305,82.559,4.236
0.082,0.982,0.036,1.526,1.526,1.099,81.864,4.841
0.032,0.979,0.023,1.343,2.38,0.854,81.89,4.62
0.031,0.976,0.026,1.709,3.54,0.854,85.605,2.902
0.052,0.975,0.03,1.099,2.747,0.732,86.661,2.886
0.035,0.979,0.034,1.343,1.465,0.916,87.235,2.209
0.027,0.981,0.036,1.831,2.441,0.977,87.182,2.128
0.053,0.979,0.037,1.526,2.197,0.854,86.835,2.449
0.052,0.974,0.032,0.977,1.282,0.793,86.828,2.44
0.048,0.983,0.038,0.854,1.465,0.916,86.653,2.621
0.049,0.977,0.034,0.854,1.831,1.038,86.406,2.948
0.033,0.977,0.034,1.221,2.258,0.916,86.663,2.661
0.038,0.978,0.034,1.099,2.686,0.977,86.805,2.46
0.034,0.979,0.04,1.221,1.892,0.854,86.939,2.256
0.035,0.979,0.041,1.709,2.625,1.099,87.02,2.048
0.04,0.976,0.039,1.587,3.052,1.038,86.899,2.143
0.045,0.976,0.04,1.038,1.77,1.038,86.761,2.239
0.042,0.98,0.037,0.793,1.038,0.854,86.7,2.366
0.049,0.977,0.038,0.977,1.282,0.854,86.575,2.577
0.026,0.98,0.039,0.977,1.587,1.038,86.734,2.367
0.026,0.974,0.046,1.404,1.831,0.977,86.87,2.086
0.048,0.982,0.038,0.977,1.038,0.854,86.817,2.162
0.019,0.976,0.044,1.343,1.404,1.16,87.015,1.727
0.039,0.976,0.031,0.183,-0.061,0.854,86.978,1.92
0.052,0.976,0.041,0.671,0.732,0.977,86.776,2.304
0.041,0.979,0.036,0.854,0.977,1.16,86.859,2.203
0.044,0.975,0.032,0.671,0.427,0.793,86.717,2.562
0.013,0.984,0.036,0.977,-1.404,0.854,86.962,2.188
0.001,0.986,0.025,0.366,-2.258,0.732,87.636,1.439
0.209,0.969,0.024,-0.916,0.244,0.916,85.745,3.903
0.028,0.981,0.029,0.305,0.427,1.16,85.971,3.673
0.025,0.994,0.024,-0.427,0.427,0.671,85.886,3.837
0.036,0.963,0.031,-0.061,0.305,1.038,85.357,4.367
0.032,0.979,0.026,2.258,0.183,0.732,87.612,1.772
0.033,0.979,0.023,1.465,0.244,0.671,87.614,1.848
0.035,0.98,0.024,0.427,0.244,0.916,87.5,1.992
0.032,0.977,0.025,0.916,0.366,0.61,87.604,1.93
0.027,0.977,0.028,-0.549,0.305,0.732,87.638,1.865
0.031,0.98,0.023,1.343,0.061,0.732,87.67,1.825
0.034,0.979,0.024,0.671,0.122,0.793,87.673,1.816
0.033,0.976,0.022,2.38,0,0.366,87.684,1.835
0.031,0.984,0.021,0.244,0.122,0.549,87.709,1.882
0.031,0.979,0.024,0.488,0.244,0.854,87.703,1.88
0.033,0.974,0.026,1.77,0.305,0.977,87.7,1.863
0.032,0.98,0.022,1.709,0.305,0.793,87.717,1.844
0.03,0.979,0.024,-0.61,0.305,0.732,87.692,1.837
0.031,0.974,0.024,2.197,0.183,0.549,87.688,1.839
0.029,0.984,0.021,-0.122,0.061,0.549,87.778,1.779
0.032,0.973,0.025,0.793,0,0.671,87.746,1.78
0.031,0.976,0.021,1.831,0.122,0.854,87.754,1.796
0.029,0.982,0.022,0.061,0.183,0.671,87.797,1.764
0.033,0.974,0.022,1.709,0,0.732,87.734,1.833
0.02,0.987,0.02,-1.038,1.16,1.16,87.924,1.657
0.031,0.975,0.021,1.831,0.183,1.099,87.935,1.648
0.031,0.989,0.014,1.282,0.244,0.793,87.981,1.681
0.027,0.981,0.022,1.038,1.343,0.793,88.061,1.589
0.049,0.995,0.049,1.404,0.061,1.343,87.48,2.002
0.123,0.97,0.016,0.366,0.732,0.854,86.356,3.342
-0.005,0.979,0.026,0.916,-0.366,0.732,86.735,2.82
0,0.977,0.025,1.099,-1.282,0.488,87.044,2.421
0.02,0.977,0.026,0.732,-1.831,0.732,87.571,2.013
0.04,0.974,0.02,1.465,-1.648,0.427,88.367,0.804
0.034,0.979,0.017,1.099,-2.136,0.366,88.115,1.385
0.028,0.982,0.01,0.916,-1.282,0.671,87.923,1.791
0.032,0.975,0.022,0.916,0.244,0.305,87.795,1.967
0.047,0.982,0.027,0.61,3.113,0.732,87.664,2.059
0.002,0.982,0.022,1.709,1.831,0.427,88.024,1.583
0.078,0.976,0.02,-0.305,-2.441,0.671,87.32,2.328
0.028,0.981,0.018,0.488,-1.953,0.549,87.408,2.258
0.027,0.977,0.02,0,-2.38,0.488,87.703,1.976
0.018,0.978,0.01,1.221,-1.221,0.61,87.575,2.21
0.031,0.985,0.019,0.732,-1.099,0.854,88.191,1.519
0.019,0.981,0.01,1.099,0.366,0.61,88.353,1.396
0.043,0.981,0.009,0.916,0.244,0.671,88.229,1.626
0.055,0.976,0.007,0.244,-1.77,0.671,87.736,2.168
-0.008,0.982,0.01,1.587,-1.831,0.305,88.316,1.602
0.027,0.98,0.012,1.099,-0.488,0.671,88.2,1.716
0.049,0.978,0.015,0.305,-1.099,0.61,88.088,1.803
0.027,0.976,0.004,1.709,-0.549,0.244,88.478,1.4
0.02,0.981,0.014,1.16,-0.732,0.671,88.085,1.8
0.054,0.976,0.008,0.854,-0.366,0.427,87.725,2.198
0.046,0.976,0.013,0.61,-0.732,0.549,87.781,2.147
0.038,0.978,0.01,-0.061,-1.587,0.793,87.607,2.303
0.023,0.981,-0.003,0.854,0.244,0.549,87.61,2.355
0.035,0.98,0.016,1.526,0.916,0.671,87.864,2.069
0.074,0.976,0.011,0.916,2.319,0.488,87.458,2.492
0.013,0.976,-0.002,0.61,-4.028,0.732,87.844,2.131
0.029,0.975,0.001,0.671,-3.418,0.488,87.746,2.22
-0.084,0.943,0.039,1.953,-0.122,1.038,89.129,0.488
0.036,0.976,0.01,1.648,0.244,0.305,89.285,-0.083
0.037,0.977,0.006,1.282,-0.122,-0.122,89.119,0.276
0.034,0.977,0.011,-1.465,0.854,1.709,88.962,0.352
0.037,0.974,0,0.854,-0.244,0.732,87.839,2.122
0.033,0.98,0.001,-0.916,-4.272,0.305,87.902,2.081
aX,aY,aZ,gX,gY,gZ,Roll,Pitch
0.029,0.987,-0.021,2.625,-5.554,-0.916,88.049,1.947
0.101,0.98,-0.106,5.249,6.653,0.244,86.557,2.914
0.032,0.983,0,3.967,0.183,0.244,86.622,2.842
0.042,0.98,0.006,3.784,-1.404,-0.793,86.557,2.967
0.035,0.989,0.002,3.54,-1.526,0.549,86.637,3.055
0.002,0.99,0.015,2.014,4.456,0.366,88.342,1.621
0.032,0.975,0.022,2.319,4.456,1.282,88.248,1.623
0.04,0.974,0.019,1.526,3.235,0.61,88.186,1.6
0.053,0.979,0.028,1.282,1.465,0.854,87.764,1.866
0.037,0.984,0.024,1.221,2.319,0.916,87.265,2.368
0.047,0.983,0.028,0.793,2.319,0.916,87.04,2.576
0.027,0.982,0.026,1.892,3.418,0.732,87.164,2.374
0.047,0.974,0.03,2.258,3.662,0.854,87.212,2.292
0.063,0.975,0.025,0.854,2.441,1.221,86.876,2.678
0.047,0.981,0.022,0.488,0.977,0.916,86.924,2.676
0.04,0.981,0.059,1.282,0.183,0.793,86.501,2.867
0.043,0.978,0.023,1.221,0.244,0.671,86.613,2.802
0.044,0.979,0.03,1.709,0.488,0.671,86.792,2.534
0.033,0.979,0.03,1.404,1.099,0.61,86.875,2.331
0.031,0.98,0.034,1.709,1.77,0.916,87.21,2.198
0.046,0.973,0.031,1.343,0.916,1.038,87.094,2.254
0.036,0.978,0.03,0.732,-0.427,1.038,87.189,2.132
0.036,0.977,0.026,0.732,-0.732,1.038,87.183,2.188
0.054,0.98,0.028,1.404,0.488,0.916,86.963,2.528
0.035,0.979,0.03,1.526,0.793,0.977,87.117,2.357
0.028,0.979,0.028,1.343,1.16,0.854,87.225,2.238
0.037,0.972,0.038,1.404,1.343,0.854,87.101,2.252
0.034,0.978,0.034,0.977,0.916,0.854,87.26,1.965
0.024,0.985,0.031,0.488,1.16,1.16,87.361,1.805
0.032,0.972,0.045,0.854,1.16,1.282,87.137,1.865
0.026,0.98,0.023,1.038,0.977,0.793,87.428,1.692
0.027,0.984,0.032,1.16,2.319,0.427,87.51,1.591
-0.011,0.981,0.032,1.953,4.211,1.099,87.784,1.087
0.025,0.967,0.042,0.854,1.709,1.221,87.873,0.984
0.095,0.983,-0.004,-1.038,-1.038,1.77,87.512,1.992
0.143,1.011,0.125,0.122,1.282,1.099,85.382,3.649
0.029,0.995,0.014,-1.282,0.366,0.793,85.076,4.209
0.031,0.964,0.03,2.686,0.183,0.854,85.08,4.3
0.03,0.996,0.015,-1.221,0.427,0.793,85.717,3.35
0.031,0.965,0.027,0.183,0.366,0.916,87.835,1.755
0.03,0.975,0.022,3.235,0.244,0.793,87.74,1.784
0.028,0.988,0.016,1.648,0.122,0.366,87.91,1.732
0.027,0.985,0.017,-0.793,0.183,0.549,87.916,1.706
0.029,0.965,0.028,1.77,0.305,1.099,87.929,1.686
0.03,0.988,0.014,1.587,0.061,0.61,88.007,1.67
0.026,0.981,0.018,-1.465,0.305,0.732,88.011,1.645
0.029,0.973,0.02,1.587,0.244,0.977,87.957,1.677
0.03,0.987,0.012,1.953,0.366,0.305,88.077,1.68
0.028,0.976,0.019,-0.549,0.366,0.977,88.061,1.658
0.029,0.971,0.02,3.357,0.061,0.793,88.003,1.702
0.028,0.993,0.01,-0.61,0.122,0.427,88.1,1.675
0.026,0.981,0.015,0.366,0.122,0.793,88.136,1.612
0.027,0.98,0.015,0.854,0,0.366,88.174,1.598
0.028,0.978,0.017,0.061,0.244,0.916,88.206,1.588
0.029,0.979,0.015,2.625,0.305,0.427,88.157,1.608
0.026,0.991,0.011,0,0.122,0.366,88.178,1.615
0.029,0.957,0.027,1.709,0.488,1.16,88.055,1.656
0.027,1.02,-0.001,-0.183,0.244,0.793,88.21,1.625
-0.177,0.956,0.007,-0.977,0,1.892,88.488,-1.367
0.061,0.969,0.018,1.282,-1.709,0.793,88.852,-0.866
0.076,0.975,0.017,0.671,-2.808,0.793,89.366,-0.184
0.011,0.975,0.021,2.014,0,0.854,88.969,-0.431
0.003,0.983,0.005,1.221,-2.197,0.549,87.612,2.21
0.029,0.978,0.013,1.77,-1.892,0.366,88.073,1.743
0.014,0.984,0.018,1.404,-1.831,0.305,88.813,0.837
0.033,0.973,0.012,1.648,-0.977,0.488,88.638,1.162
0.033,0.98,0.018,1.282,-0.427,0.549,88.171,1.597
0.029,0.977,0.019,0.732,-1.038,0.61,88.128,1.592
0.017,0.978,0.015,1.16,-0.916,0.427,88.114,1.635
0.024,0.977,0.012,0.977,-1.892,0.488,88.233,1.496
0.014,0.98,0.011,1.404,-1.038,0.427,88.514,1.221
0.03,0.977,0.016,1.282,-1.099,0.488,88.529,1.23
0.019,0.98,0.012,1.221,-1.831,0.488,88.53,1.26
0.028,0.982,0.019,1.282,-1.343,0.366,88.432,1.317
0.04,0.978,0.016,1.648,-0.671,0.488,88.074,1.692
0.027,0.981,0.021,1.648,0.671,0.732,88.079,1.649
0.034,0.979,0.025,1.16,0.061,0.549,87.789,1.874
0.075,0.973,0.015,1.221,-1.221,0.366,87.194,2.57
0.018,0.985,0.018,0.61,-1.282,0.732,87.467,2.253
0.029,0.978,0.02,1.099,0.549,0.549,87.449,2.28
0.043,0.973,0.024,0.732,-1.343,0.61,87.337,2.409
0.03,0.979,0.016,0.854,-1.892,0.732,87.903,1.754
0.026,0.978,0.018,1.343,-0.793,0.549,87.804,1.868
0.015,0.975,0.02,0.854,0.183,0.854,87.963,1.675
0.021,0.981,0.013,0.854,0.183,0.488,88.319,1.354
0.052,0.979,0.02,0.305,-2.319,0.671,88.028,1.672
0.032,0.978,0.002,1.282,-1.038,0.427,88.066,1.757
0.022,0.98,0.022,1.404,0.183,0.671,87.968,1.856
0.048,0.976,0.014,0.916,0.366,0.549,87.596,2.253
0.042,0.979,0.011,0.732,-1.953,0.305,87.773,2.108
0.052,0.979,0.016,0.549,-2.441,0.549,87.42,2.411
0.085,0.977,0.003,1.221,0.061,0.244,86.603,3.335
0.01,0.979,0.01,-0.183,-6.958,0.549,87.156,2.782
-0.079,0.987,0.022,0.671,-3.174,0.671,88.747,1.011
0.041,0.98,0.01,0.61,0.427,1.221,88.939,0.836
0.039,0.968,0.014,0.671,0.366,1.038,89.162,0.166
0.039,0.987,0.001,1.221,0.671,0.549,89.095,0.579
0.035,0.968,0,2.258,-0.183,0.732,87.714,2.255
0.031,0.975,0.003,0.549,-6.409,-1.587,87.866,2.116
aX,aY,aZ,gX,gY,gZ,Roll,Pitch
0.016,0.966,-0.001,0.671,-3.113,2.747,88.228,1.771
0.109,0.991,-0.026,5.127,15.442,2.625,87.171,2.806
0.044,0.978,0.017,1.465,0.427,0.061,87.074,2.924
0.09,0.954,0.015,4.822,-1.587,0.671,86.194,3.805
0.047,0.98,0.035,1.831,0.366,0.549,85.715,4.241
0.044,0.981,0.046,2.075,0.977,0.488,86.305,3.296
-0.031,0.982,0.052,1.404,5.432,1.709,86.904,2.2
0.075,0.975,0.037,2.808,5.615,1.16,86.834,1.969
0.088,0.976,0.042,0.183,2.136,1.221,86.356,2.573
0.053,0.978,0.043,1.099,2.197,1.099,86.292,2.699
-0.042,0.899,-0.187,1.221,1.404,0.916,87.238,2.585
0.041,0.984,0.045,0.916,0.488,0.61,87.763,2.07
0,0.999,0.043,0.671,2.441,1.038,88.874,0.757
0.047,0.985,0.046,1.587,3.052,0.916,88.955,0.675
0.044,0.981,0.046,0.977,1.587,1.038,86.774,1.918
0.044,0.978,0.044,0.916,1.038,0.977,86.75,1.966
0.055,0.983,0.047,1.099,1.282,0.916,86.167,2.766
0.036,0.976,0.05,1.099,1.16,0.854,86.225,2.613
0.047,0.979,0.047,1.343,1.343,0.916,86.188,2.647
0.049,0.977,0.048,1.16,0.793,0.793,86.092,2.729
0.046,0.981,0.049,0.793,1.038,0.854,86.152,2.602
0.035,0.977,0.049,1.099,1.16,1.16,86.175,2.584
0.049,0.977,0.043,1.221,2.075,0.977,86.194,2.618
0.054,0.973,0.05,1.038,1.282,1.038,86.126,2.686
0.035,0.978,0.047,0.916,1.526,0.793,86.244,2.535
0.048,0.98,0.047,0.916,1.038,0.793,86.134,2.728
0.034,0.979,0.045,1.16,0.488,0.793,86.26,2.511
0.019,0.981,0.045,1.77,1.587,0.916,86.647,1.995
0.04,0.973,0.049,1.282,1.16,0.854,86.579,2.068
0.051,0.976,0.047,1.465,1.892,1.099,86.553,2.104
0.038,0.974,0.049,1.343,1.16,1.038,86.476,2.162
0.02,0.977,0.05,0.916,0.671,1.038,86.403,2.177
0.031,0.977,0.05,0.61,0.183,1.038,86.484,2.034
0.057,0.975,0.054,0.977,1.404,1.038,86.341,2.134
0.005,0.98,0.056,1.648,4.395,0.977,86.512,1.647
-0.007,0.979,0.049,1.16,1.282,1.343,86.703,1.248
0.076,0.97,0.038,-2.319,-3.113,3.052,86.534,1.915
0.161,1,0.008,0.854,1.465,1.465,85.938,3.411
0.025,0.987,0.031,-0.366,0.427,1.221,85.875,3.694
0.031,0.981,0.028,0.793,0.488,0.793,85.49,4.242
0.033,0.966,0.035,2.686,0.244,0.671,86.089,3.617
0.032,0.984,0.026,0.916,0.183,0.61,87.524,1.753
0.031,0.976,0.031,-1.282,0.549,1.099,87.449,1.85
0.03,0.97,0.03,2.625,0.122,1.038,87.426,1.842
0.03,0.98,0.026,2.38,0.183,0.488,87.551,1.8
0.029,0.988,0.024,0.488,0.366,0.488,87.607,1.752
0.031,0.969,0.03,1.526,0.366,0.854,87.609,1.762
0.031,0.986,0.024,1.343,0.183,0.671,87.662,1.773
0.03,0.979,0.027,-0.488,0.305,0.793,87.654,1.773
0.031,0.972,0.03,2.258,0.183,0.732,87.565,1.809
0.029,0.989,0.022,0.305,0.183,0.732,87.678,1.768
0.03,0.972,0.028,0.977,0.305,0.977,87.644,1.756
0.03,0.981,0.025,1.404,0.305,0.671,87.668,1.748
0.029,0.976,0.028,0.366,0.366,0.732,87.712,1.72
0.029,0.987,0.023,0,0.366,0.671,87.7,1.726
0.031,0.972,0.029,0.977,0.244,0.854,87.68,1.749
0.027,0.989,0.024,2.075,0.061,0.61,87.724,1.707
0.03,0.985,0.023,0.488,0.122,0.671,87.769,1.71
0.029,0.973,0.029,0.549,0.244,0.854,87.698,1.716
0.031,0.976,0.025,2.197,0.122,0.916,87.742,1.711
0.028,0.989,0.02,0.366,1.038,0.977,87.773,1.725
0.063,0.976,0.044,0.793,1.099,0.366,87.192,2.215
0.02,0.982,0.022,1.099,-1.221,0.61,87.369,2.076
0,0.981,0.026,1.16,-1.831,0.61,87.698,1.621
0.028,0.978,0.031,1.709,-0.61,0.488,87.574,1.627
0.021,0.981,0.027,1.953,1.831,0.732,88.147,1.014
0.027,0.98,0.025,1.099,0.427,0.732,88.051,1.12
0.02,0.98,0.034,0.732,-0.916,0.61,87.78,1.409
-0.004,0.984,0.034,1.099,-1.465,0.732,88.004,0.935
0.045,0.973,0.027,1.282,-1.587,0.366,87.819,1.285
0.022,0.981,0.03,1.953,0.671,0.427,87.808,1.203
0.044,0.978,0.035,1.343,0.61,0.732,87.586,1.557
0.023,0.984,0.038,0.793,0.793,0.671,87.277,1.956
0.029,0.982,0.035,1.099,-0.488,0.427,87.357,1.717
0.006,0.981,0.039,0.061,-4.7,0.671,87.39,1.492
0.04,0.974,0.016,0.366,-3.906,0.671,87.645,1.44
0.051,0.975,0.011,0.305,-1.343,0.671,87.631,1.846
0.027,0.981,0.031,1.465,0.366,0.488,87.696,1.814
0.015,0.978,0.027,1.038,-0.854,0.549,87.694,1.939
0.054,0.979,0.013,0.977,-1.709,0.61,87.545,2.142
0.039,0.979,0.019,0.977,-0.977,0.732,87.632,1.971
0.038,0.979,0.019,0,-1.648,0.671,87.575,2.139
0.017,0.979,0.028,1.221,-0.305,0.549,87.537,2.176
0.062,0.973,0.016,0.916,-0.488,0.305,87.406,2.299
0.033,0.98,0.026,1.16,-0.427,0.488,87.441,2.206
0.041,0.984,0.017,0.549,0.793,0.61,87.43,2.243
0.047,0.98,0.016,0.488,-1.343,0.366,87.114,2.678
0.057,0.974,-0.001,0.183,-7.263,0.061,87.27,2.602
-0.104,0.987,0.04,1.953,0.977,0.916,88.807,0.599
0.038,0.98,0.021,-0.305,0.61,1.587,88.772,0.553
0.035,0.98,0.012,-0.671,1.282,1.465,88.883,0.38
0.031,0.981,0.014,-0.061,-3.418,-0.671,88.732,-0.007
aX,aY,aZ,gX,gY,gZ,Roll,Pitch
0.042,0.971,0.008,1.892,-4.272,0.061,87.719,2.133
0.052,1.066,0.119,2.563,15.93,4.456,86.825,2.294
0.041,0.978,0.014,2.563,-0.122,-0.061,86.749,2.37
0.046,0.982,0.017,4.15,-2.441,-1.099,86.553,2.59
-0.207,0.822,-0.382,3.357,-0.183,0.305,86.413,-1.005
-0.029,0.977,0.026,1.343,-0.366,0.854,84.571,-2.264
0.057,0.978,0.046,1.282,1.16,1.343,85.104,-2.01
0.05,0.978,0.051,-0.305,3.662,1.099,85.594,-1.95
0.075,0.974,0.032,1.77,5.005,0.977,86.805,2.248
0.062,0.979,0.033,1.404,0.793,0.916,85.7,3.585
-0.022,0.962,0.034,1.282,1.526,1.038,86.703,2.436
0.045,0.977,0.031,1.77,3.357,1.038,86.965,2.353
0.029,0.981,0.031,0.732,3.479,1.16,87.469,1.678
0.022,0.98,0.041,1.343,4.211,1.221,87.715,1.086
0.076,0.979,0.026,1.221,2.502,0.977,86.869,2.508
0.057,0.977,0.041,1.099,2.441,1.221,86.634,2.692
0.048,0.975,0.031,0.854,1.77,0.854,86.403,2.965
0.049,0.98,0.034,0.916,1.099,0.854,86.117,3.366
0.048,0.979,0.033,1.221,0.854,0.793,86.408,2.96
0.027,0.979,0.042,0.854,0.061,0.854,86.759,2.513
0.051,0.977,0.034,0.854,0,1.038,86.698,2.562
0.042,0.979,0.035,0.671,0.977,1.038,86.767,2.461
0.03,0.979,0.034,1.526,1.587,0.916,86.946,2.203
0.04,0.98,0.026,0.854,1.038,0.916,86.949,2.395
0.012,0.982,0.039,1.099,1.77,1.099,87.328,1.816
0.028,0.983,0.023,1.16,2.869,1.221,87.609,1.601
0.057,0.979,0.034,0.488,2.747,1.038,87.327,1.998
0.046,0.977,0.029,1.038,1.221,0.916,87.234,2.085
0.022,0.98,0.028,1.038,1.953,0.854,87.211,2.243
0.034,0.98,0.033,0.977,1.465,0.916,87.048,2.331
0.069,0.966,0.029,0.854,-0.732,0.916,86.949,2.506
0.11,0.97,0.013,0.977,-0.183,0.671,86.238,3.445
0.034,0.988,0.022,1.587,2.014,0.854,86.127,3.604
0.027,0.977,0.022,-0.244,0.61,1.099,86.278,3.505
0.036,0.976,0.024,0.366,0.183,0.916,86.759,3.015
0.033,0.973,0.022,1.831,0.122,0.671,87.686,1.9
0.032,0.98,0.018,1.648,0.305,0.366,87.725,1.884
0.032,0.991,0.016,0.183,0.183,0.488,87.719,1.952
0.027,0.983,0.02,-1.953,0.549,1.221,87.875,1.812
0.032,0.966,0.027,0.977,0.244,1.038,87.849,1.799
0.032,0.974,0.021,3.479,0.183,0.488,87.836,1.793
0.032,0.985,0.017,1.038,0.183,0.549,87.815,1.802
0.033,0.984,0.018,0.366,0.244,0.671,87.759,1.89
0.031,0.981,0.018,0.549,0.366,0.61,87.855,1.859
0.032,0.976,0.019,1.099,0.244,0.732,87.861,1.864
0.032,0.979,0.016,1.465,0.244,0.671,87.867,1.867
0.032,0.984,0.015,0.671,0.366,0.488,87.899,1.852
0.03,0.984,0.015,-0.061,0.305,0.61,87.927,1.844
0.031,0.977,0.018,0.244,0.244,0.916,87.958,1.82
0.029,0.975,0.018,1.16,0.183,0.488,87.981,1.778
0.033,0.972,0.019,2.136,0.061,0.793,87.931,1.798
0.032,0.978,0.015,1.648,0.122,0.671,87.911,1.82
0.032,0.983,0.013,0.61,0.305,0.61,87.924,1.844
0.029,0.985,0.012,-0.732,0.427,1.16,87.966,1.843
0.028,0.962,0.023,1.526,0.549,1.282,87.994,1.785
0.032,0.978,0.012,2.014,0,0.793,88.004,1.794
0.022,0.982,0.016,0.122,0.916,1.221,88.121,1.635
-0.005,0.917,-0.137,0.183,-1.709,1.282,88.269,1.156
0.068,0.978,0.01,0.732,-2.136,0.61,87.723,1.735
-0.003,0.977,0.02,0.671,-2.319,0.671,88.177,1.215
0.016,0.978,0.013,1.099,-2.319,0.488,88.193,1.126
0.06,0.979,0.014,1.77,-1.892,0.366,87.788,2.052
0.023,0.984,0.012,0.671,-1.282,0.61,88.361,1.394
0.041,0.977,0.014,1.16,-0.61,0.61,87.82,2.04
0.029,0.981,0.017,1.038,-1.404,0.549,87.621,2.231
0.005,0.98,0.014,1.282,-0.977,0.671,88.347,1.432
0.067,0.975,0.005,0.916,-0.793,0.61,87.799,2.078
0.023,0.979,0.017,1.221,-0.854,0.427,88.031,1.808
0.02,0.981,0.014,0.977,-1.282,0.488,88.167,1.674
0.004,0.982,0.02,0.366,-1.648,0.61,88.141,1.66
0.034,0.976,0.016,0.305,-0.366,0.549,88.463,1.174
0.024,0.98,0.013,1.648,1.038,0.549,88.494,1.188
0.075,0.975,0.012,0.61,0.122,0.244,87.806,2.002
0.019,0.977,0.01,1.343,-0.061,0.366,87.658,2.216
0.056,0.978,0.012,0.977,-0.427,0.549,87.371,2.537
0.024,0.982,0.021,0.977,0.427,0.61,87.334,2.541
0.015,0.984,0.021,0.854,-2.075,0.488,88.097,1.66
0.047,0.977,0.002,0.916,-0.305,0.488,87.775,2.074
0.041,0.976,0.012,0.977,0.916,0.549,87.969,1.864
0.03,0.984,0.02,-0.061,-2.869,0.427,87.901,1.942
0.023,0.98,0.017,0.732,-1.831,0.366,87.811,2.061
0.074,0.977,0.013,1.099,1.038,0.244,87.379,2.46
0.045,0.976,0.015,0.244,-2.075,0.427,87.305,2.521
0.026,0.98,0.01,0.366,-3.784,0.488,87.4,2.471
0.041,0.982,0.007,0.61,-2.808,0.732,87.184,2.736
-0.096,0.983,0.015,1.465,0.183,0.977,89.265,0.248
0.038,0.978,0.014,1.16,0.305,0.61,89.315,0.141
0.039,0.979,0.011,0.488,0.305,0.305,89.248,0.326
0.037,0.976,0.016,-0.244,0.244,0.305,89.154,0.259
0.037,0.98,0.007,0.977,-0.916,-0.122,87.685,2.21
0.041,0.988,0.01,0.977,-4.028,-0.732,87.657,2.254
aX,aY,aZ,gX,gY,gZ,Roll,Pitch
0.019,1,0.01,2.563,-5.859,-1.282,87.952,1.948
0.036,0.978,-0.011,1.526,2.869,3.052,88.053,1.932
0.041,0.991,-0.001,0.488,0.488,0.488,88.022,1.974
0.041,0.985,0.005,2.991,-0.305,-0.854,88.024,1.975
0.05,0.981,0.015,4.272,-2.014,-0.549,87.551,2.446
0.015,0.959,0.076,4.456,0.061,0.122,87.433,2.158
0.07,0.974,0.056,3.662,1.831,2.014,86.575,2.592
0.045,0.977,0.032,0.488,1.953,1.038,86.268,2.645
0.07,0.967,0.031,3.052,2.991,0.916,85.883,2.938
0.068,0.977,0.035,0.977,0.732,0.793,85.665,3.692
0.045,0.975,0.034,1.465,2.319,0.916,86.143,3.328
0.046,0.98,0.039,1.16,2.991,0.916,86.083,3.338
0.023,0.984,0.042,1.16,3.845,0.854,86.566,2.641
0.052,0.976,0.034,1.221,3.54,1.038,86.745,2.421
0.052,0.979,0.035,0.427,2.441,1.099,86.663,2.52
0.06,0.984,0.035,0.488,0.732,1.038,86.539,2.727
0.049,0.974,0.036,1.038,-0.061,0.732,86.277,3.112
0.043,0.978,0.037,1.099,0,0.671,86.363,2.978
0.031,0.976,0.038,1.221,0.732,0.977,86.576,2.678
0.057,0.978,0.032,0.916,1.221,0.977,86.632,2.644
0.053,0.975,0.036,1.221,2.197,0.916,86.579,2.701
0.044,0.981,0.037,0.854,2.258,1.038,86.571,2.706
0.039,0.981,0.035,0.854,1.526,0.977,86.506,2.824
0.022,0.976,0.03,1.038,1.587,1.038,86.921,2.308
0.035,0.977,0.031,0.671,1.404,0.977,87.168,2.043
0.058,0.978,0.03,0.793,1.282,1.038,87.086,2.247
0.031,0.978,0.034,1.282,1.404,0.916,87.192,2.129
0.036,0.982,0.032,1.038,1.038,1.038,87.023,2.332
0.026,0.979,0.03,0.671,-0.061,0.671,87.132,2.207
0.036,0.981,0.033,0.732,1.16,0.854,87.34,1.884
0.034,0.98,0.029,0.549,1.038,0.916,87.364,1.917
0.018,0.974,0.026,0.061,1.648,1.099,87.605,1.663
0.022,0.978,0.015,0.488,-0.122,0.916,87.806,1.601
0.027,1.018,0.007,-3.723,-0.122,0.671,88.167,1.464
0.029,0.972,0.022,-0.244,0.366,0.977,88.277,1.4
0.028,0.989,0.014,-0.244,0.244,0.854,88.258,1.527
0.032,0.977,0.017,1.526,0.183,0.671,88.108,1.681
0.032,0.982,0.014,0.061,0.366,0.732,87.981,1.766
0.032,0.975,0.017,0.732,0.427,0.916,87.971,1.816
0.033,0.98,0.011,0.916,0.183,0.671,87.909,1.904
0.031,0.981,0.011,0.244,0.305,0.732,87.966,1.881
0.032,0.985,0.011,0.916,0.122,0.488,87.986,1.877
0.032,0.98,0.012,0.427,0.183,0.61,88.016,1.872
0.032,0.979,0.012,0.61,0.305,0.732,88.031,1.851
0.031,0.975,0.012,1.587,0.244,0.732,88.013,1.863
0.031,0.982,0.011,1.038,0.244,0.61,88.021,1.852
0.033,0.98,0.012,0.61,0.305,0.977,88.018,1.857
0.032,0.977,0.012,1.465,0.305,0.793,88.011,1.865
0.031,0.983,0.01,1.16,0.183,0.549,88.034,1.852
0.03,0.98,0.011,0.793,0.427,0.854,88.049,1.837
0.032,0.976,0.011,1.221,0.305,0.61,88.058,1.83
0.031,0.983,0.01,1.465,0.122,0.488,88.089,1.806
0.03,0.983,0.008,0.732,0.305,0.671,88.108,1.795
0.03,0.985,0.008,-0.183,0.366,0.854,88.122,1.793
0.03,0.98,0.011,0.122,0.183,0.916,88.159,1.758
0.03,0.982,0.009,1.282,0,0.854,88.177,1.747
0.027,0.997,0.003,-0.916,0.427,1.099,88.241,1.702
0.024,0.984,0.009,0.793,1.343,1.038,88.316,1.622
0.086,1.015,0.135,0.854,-1.16,1.648,86.703,2.423
0.035,0.981,0.005,0.854,-3.784,0.671,86.681,2.499
0.014,0.985,0.01,0.916,-2.625,0.793,86.739,2.315
0.017,0.976,0.018,1.282,-1.16,0.427,86.704,2.219
0.038,0.981,0.01,1.953,-1.038,0.366,88.342,1.533
0.03,0.975,0.017,1.77,-0.732,0.305,88.333,1.456
0.033,0.977,0.015,1.038,-1.343,0.549,88.059,1.733
0.046,0.98,0.008,1.038,-1.709,0.488,87.73,2.151
-0.017,0.977,0.026,1.282,-1.221,0.549,88.346,1.343
0.023,0.976,0.014,1.099,-2.625,0.427,88.449,1.246
0.05,0.978,0.012,1.709,-0.793,0.183,88.263,1.5
-0.018,0.987,0.034,1.709,-1.953,0.244,88.624,0.564
0.053,0.975,0.014,0.916,-1.831,0.305,88.073,1.592
0.055,0.974,0.012,0.854,-0.671,0.244,87.696,2.052
0.01,0.978,0.023,0.61,-1.526,0.244,88.093,1.468
0.013,0.977,0.029,0.671,-1.831,0.488,87.758,1.925
0.015,0.979,0.016,0.732,-2.38,0.366,88.21,1.36
0.034,0.974,0.02,1.892,2.258,0.427,88.336,1.059
0.034,0.978,0.018,0.427,-3.723,0.488,88.15,1.406
0.026,0.982,0.018,0.732,-3.784,0.305,88.095,1.596
0.061,0.974,0.001,1.099,-2.563,0.244,87.576,2.275
0.034,0.98,0.007,1.038,-0.061,0.427,87.641,2.268
0.021,0.977,0.003,1.709,2.197,0.427,87.88,2.074
0.035,0.981,0.018,0.854,0.305,0.549,87.76,2.196
0.055,0.977,0.012,1.343,2.197,0.366,87.808,2.111
0.033,0.98,0.014,1.099,2.441,0.305,87.789,2.098
0.074,0.977,0.011,0.61,-0.854,0.305,87.015,2.874
0.092,0.981,0.01,0.61,-5.493,0,86.226,3.711
-0.096,0.982,0.021,1.221,-3.54,0.793,88.291,1.5
0.043,0.977,0.023,0.61,0.488,1.404,88.102,1.646
0.041,0.974,0.014,-0.732,1.038,1.038,88.469,1.167
0.036,1.015,0.031,-4.456,-1.343,2.38,88.662,0.344
0.039,0.975,0.011,1.648,-0.61,0,87.413,2.314
0.044,0.976,0.008,2.441,-2.075,-0.732,87.487,2.333
aX,aY,aZ,gX,gY,gZ,Roll,Pitch
0.038,0.969,0.001,4.456,-3.601,-0.793,87.591,2.288
0.07,0.866,-0.086,13.367,16.602,0.366,86.939,2.898
0.045,0.976,0.027,1.709,0.183,0.244,86.931,2.976
0.051,0.977,0.039,3.357,-0.549,-0.244,86.915,3.073
0.219,1.074,0.015,1.709,0.122,-0.61,84.35,5.65
0.151,1.038,0.049,4.333,-0.854,-1.282,83.208,6.54
0.021,0.974,0.049,2.136,2.197,0.977,83.434,6.206
0.044,0.975,0.042,1.648,-0.244,1.343,83.504,6.116
0.125,0.978,0.057,-0.244,3.296,1.648,84.319,4.917
0.073,0.98,0.048,1.526,2.747,1.038,85.188,3.852
0.11,0.93,0.04,0.732,0.61,0.916,84.09,5.22
0.052,0.975,0.055,1.221,0.427,0.549,83.899,5.339
-0.006,0.977,0.046,2.502,2.808,1.221,85.593,3.401
0.057,0.976,0.066,0.732,3.662,1.099,85.6,3.159
0.049,0.98,0.061,0,2.808,1.282,85.995,2.214
0.087,0.974,0.052,0.244,0.854,1.099,85.724,2.72
0.037,0.981,0.051,0.671,1.587,0.916,85.255,3.345
0.056,0.979,0.053,0.854,1.526,0.916,85.393,3.334
0.028,0.975,0.06,1.282,2.502,1.099,85.611,3.035
0.027,0.978,0.058,1.099,2.197,1.038,86.087,2.163
0.056,0.982,0.05,0.488,1.648,1.038,85.936,2.45
0.055,0.978,0.048,0.305,0.854,0.793,86.01,2.431
0.053,0.979,0.051,0.916,0.977,1.038,85.88,2.801
0.037,0.978,0.044,1.16,1.404,0.793,85.929,2.946
