aX,aY,aZ,gX,gY,gZ,Roll,Pitch
0.910,-0.091,-0.369,10.498,-10.864,2.075,-5.273,67.346
0.962,-0.137,-0.296,5.615,5.127,-1.404,-6.533,69.424
0.893,-0.040,-0.383,-7.812,8.728,1.160,-5.172,68.628
0.964,-0.182,-0.397,12.756,-7.935,0.305,-6.410,67.912
0.961,-0.103,-0.407,12.085,1.709,2.563,-6.480,67.660
0.945,-0.063,-0.367,7.019,3.540,3.174,-5.429,66.942
0.909,-0.045,-0.558,10.132,28.015,8.484,-5.381,64.865
0.864,0.042,-0.694,20.874,84.839,21.545,-2.290,61.074
0.736,0.034,-0.793,28.687,105.713,23.437,-0.432,55.076
0.474,0.091,-0.944,54.504,98.572,22.888,1.659,44.922
0.223,0.333,-0.895,9.094,89.417,25.452,7.049,34.338
-0.019,0.288,-0.909,7.324,84.045,28.198,11.062,21.338
-0.247,0.332,-0.822,3.357,69.153,20.752,16.189,6.604
-0.407,0.284,-0.705,5.127,41.504,13.123,20.195,-7.217
-0.483,0.265,-0.709,-2.563,5.066,3.723,19.220,-19.013
-0.507,0.297,-0.797,2.869,-3.601,-1.587,18.851,-26.807
-0.488,0.294,-0.828,-1.038,-1.831,0.549,17.680,-30.142
-0.474,0.273,-0.800,-3.662,-0.977,1.099,17.002,-30.375
-0.486,0.290,-0.805,-2.563,-1.038,0.671,17.002,-29.684
-0.483,0.247,-0.810,1.709,0.061,0.549,16.309,-29.405
-0.482,0.268,-0.800,0.366,0.244,-0.793,16.055,-29.585
-0.484,0.265,-0.813,2.441,0.549,0.244,15.872,-29.646
-0.486,0.279,-0.802,0.732,-0.671,1.587,15.728,-29.693
-0.466,0.263,-0.805,-0.793,-1.099,1.282,16.007,-29.482
-0.473,0.242,-0.781,-4.333,-6.165,0.610,15.723,-29.558
-0.399,0.248,-0.728,-16.418,-25.330,-3.357,15.967,-29.073
-0.221,0.163,-0.797,-36.804,-68.298,-8.118,14.766,-25.686
0.066,0.107,-0.942,-13.428,-110.046,-5.981,12.593,-17.112
0.399,0.003,-1.046,-28.015,-114.807,-3.357,8.440,-2.504
0.611,-0.067,-1.020,-7.446,-91.431,-3.418,3.029,12.644
0.742,-0.038,-0.732,-10.071,-76.538,-2.197,0.077,25.926
0.885,-0.121,-0.528,6.531,-41.260,-7.019,-2.997,38.347
0.906,-0.066,-0.515,11.169,-12.817,4.150,-3.962,48.212
0.913,-0.103,-0.421,-2.258,-1.160,2.991,-4.578,57.215
0.889,-0.092,-0.443,-8.972,-5.493,-7.141,-5.361,61.574
0.904,-0.076,-0.392,11.719,-3.113,-2.380,-4.782,63.477
0.953,-0.097,-0.420,3.357,-2.258,1.160,-5.218,64.867

0.915,-0.109,-0.398,2.991,-5.554,1.648,-5.320,65.139
0.966,-0.051,-0.416,-22.583,3.845,0.122,-4.664,66.050
0.906,-0.005,-0.420,11.902,8.118,6.592,-3.664,65.877
0.954,-0.163,-0.466,19.104,3.845,4.883,-4.562,65.176
0.914,0.008,-0.464,17.334,7.019,2.502,-2.913,64.578
0.874,-0.001,-0.556,8.667,25.024,9.338,-2.240,62.340
0.845,0.053,-0.678,9.216,58.655,18.433,-1.414,58.880
0.722,0.105,-0.804,14.709,81.238,28.137,2.256,53.235
0.559,0.155,-0.884,3.784,91.675,29.297,4.263,45.603
0.284,0.170,-0.978,14.893,97.412,28.870,6.691,35.504
0.009,0.268,-0.895,14.832,92.651,28.870,10.177,23.444
-0.185,0.228,-0.824,-10.376,63.538,20.752,12.717,10.287
-0.393,0.226,-0.839,-1.221,47.974,11.658,14.127,-4.470
-0.494,0.234,-0.694,7.996,25.635,5.676,15.622,-17.396
-0.493,0.216,-0.769,4.517,-1.526,3.113,14.511,-25.672
-0.535,0.235,-0.807,2.319,-2.563,-0.427,14.015,-30.575
-0.508,0.209,-0.817,-1.099,-1.953,0.732,13.609,-32.270
-0.516,0.242,-0.807,-2.625,1.160,1.709,13.351,-31.683
-0.512,0.227,-0.791,-1.953,0.061,0.671,13.408,-31.733
-0.517,0.215,-0.814,-0.671,-2.502,1.465,13.139,-31.506
-0.502,0.232,-0.802,-0.061,1.831,0.793,13.521,-31.496
-0.510,0.219,-0.808,0.610,-0.183,1.343,13.197,-31.457
-0.509,0.223,-0.793,-1.526,0.916,2.136,13.144,-31.409
-0.469,0.188,-0.736,-3.662,-10.315,-1.709,13.062,-31.434
-0.371,0.137,-0.719,-22.705,-57.617,-6.226,12.095,-30.529
-0.112,0.082,-0.957,-13.611,-94.421,-12.512,10.138,-24.096
0.086,0.082,-1.007,-36.926,-95.825,-3.601,7.891,-14.075
0.353,-0.036,-1.023,-3.479,-82.886,-3.113,4.092,-0.678
0.516,-0.000,-0.893,-14.404,-66.040,-3.052,1.851,12.247
0.674,-0.004,-0.810,-14.526,-53.650,-3.235,0.594,23.574
0.759,-0.060,-0.685,1.099,-52.673,-1.831,-1.398,34.002
0.890,-0.101,-0.536,-5.737,-71.106,-1.953,-2.328,44.100
0.950,-0.115,-0.505,-25.513,-64.392,-1.465,-3.879,52.048
0.978,-0.092,-0.312,-12.695,-18.494,-2.625,-5.113,59.918
0.988,-0.247,-0.333,8.362,0.732,0.549,-7.591,64.980
0.974,-0.017,-0.183,-7.263,5.981,-0.122,-6.536,70.010
0.993,-0.220,-0.294,1.404,1.099,4.639,-8.007,72.212
0.980,-0.170,-0.287,3.235,1.404,1.709,-9.086,72.013
0.959,-0.086,-0.242,5.493,1.648,-2.136,-6.966,73.994
0.980,-0.132,-0.250,-2.563,-2.930,-0.549,-8.524,72.501
0.970,-0.152,-0.253,3.052,-1.587,2.136,-7.655,73.327
1.000,-0.116,-0.246,0.305,-4.700,-0.427,-6.879,74.225

0.966,-0.107,-0.262,12.634,-0.671,-0.061,-7.149,73.882
1.008,-0.148,-0.298,-26.306,6.592,2.991,-7.294,73.324
0.973,-0.111,-0.310,20.508,4.395,2.930,-6.696,72.871
0.945,-0.077,-0.271,7.690,0.183,4.089,-6.229,72.528
0.960,-0.058,-0.286,1.221,0.305,1.526,-5.537,72.432
0.970,-0.128,-0.392,7.751,11.719,5.371,-5.271,71.148
0.910,-0.029,-0.535,11.047,59.753,13.489,-4.094,68.216
0.883,0.021,-0.654,0.061,85.876,16.968,-2.663,63.249
0.745,0.015,-0.803,7.751,103.943,14.221,-1.629,55.774
0.497,0.211,-0.947,41.016,111.145,20.325,2.962,45.846
0.202,0.130,-0.963,9.094,109.741,24.475,5.262,34.486
-0.094,0.177,-0.917,23.499,96.130,20.081,7.838,20.201
-0.368,0.163,-0.741,7.019,75.012,12.390,10.778,3.734
-0.487,0.260,-0.638,1.709,25.452,5.676,12.316,-12.599
-0.546,0.238,-0.755,-6.226,0.000,1.770,13.865,-25.291
-0.546,0.225,-0.794,-0.488,0.977,-0.732,14.153,-32.468
-0.540,0.262,-0.767,-6.775,-0.793,-1.160,15.172,-34.235
-0.550,0.256,-0.785,0.916,-1.160,0.000,14.504,-33.867
-0.530,0.241,-0.779,3.357,-0.244,-0.122,14.510,-33.485
-0.536,0.231,-0.786,1.160,0.427,1.038,14.640,-33.405
-0.527,0.234,-0.781,-1.404,-0.793,1.587,14.230,-33.202
-0.536,0.254,-0.777,0.549,-0.305,1.648,14.259,-33.082
-0.525,0.231,-0.782,1.221,-1.465,0.549,14.111,-33.012
-0.511,0.240,-0.733,-3.357,-7.568,0.122,14.450,-33.094
-0.421,0.182,-0.713,-2.563,-39.368,-1.343,14.107,-32.401
-0.232,0.179,-0.902,-20.569,-81.909,-14.526,13.162,-27.542
0.012,0.152,-0.945,-33.813,-84.961,-19.043,12.172,-18.835
0.173,0.119,-1.064,-37.292,-85.999,-6.653,9.809,-7.246
0.408,-0.077,-0.995,0.854,-79.590,-7.141,5.441,5.258
0.607,0.024,-0.816,23.010,-80.017,-10.864,3.120,17.417
0.778,-0.033,-0.772,-7.629,-68.604,-5.859,0.471,28.333
0.866,-0.037,-0.607,-14.038,-63.416,-2.075,-1.680,39.791
0.919,-0.110,-0.471,-16.052,-54.871,-3.662,-2.153,49.887
0.944,-0.109,-0.411,-53.955,-36.804,-2.502,-3.955,56.976
0.960,-0.093,-0.264,11.047,-4.211,-1.587,-4.886,64.146
0.972,-0.110,-0.257,-4.517,-6.226,0.977,-5.956,68.890
0.981,-0.113,-0.246,-3.418,0.366,0.977,-6.014,72.018
0.989,-0.179,-0.273,4.700,-0.854,0.671,-6.989,73.560
0.978,-0.121,-0.235,4.883,-1.160,0.854,-7.359,73.816
0.974,-0.146,-0.242,1.404,-2.625,-0.061,-7.873,73.764
0.985,-0.098,-0.228,-3.479,-0.427,-0.427,-7.662,74.087

0.973,-0.117,-0.267,9.949,-1.892,-0.244,-6.827,74.485
0.970,-0.114,-0.242,-6.104,4.517,2.014,-6.741,74.414
1.011,-0.202,-0.330,23.071,5.005,7.751,-7.415,73.161
0.983,-0.157,-0.254,1.953,2.502,2.930,-8.217,72.485
0.968,-0.052,-0.296,4.883,4.700,1.648,-7.312,72.521
0.942,-0.046,-0.394,4.639,16.602,4.150,-6.340,70.887
0.929,-0.038,-0.584,4.700,62.988,14.160,-4.059,67.858
0.837,0.027,-0.676,12.817,90.149,18.738,-1.495,62.036
0.709,0.010,-0.817,19.592,95.215,16.541,-0.635,54.136
0.424,0.152,-0.972,34.058,106.323,20.203,2.062,43.537
0.176,0.138,-0.957,10.925,103.455,18.677,4.640,31.991
-0.113,0.253,-0.914,15.869,82.397,20.203,8.195,17.916
-0.269,0.179,-0.760,0.916,48.584,5.737,11.330,3.400
-0.435,0.261,-0.805,9.094,12.329,6.958,13.388,-10.274
-0.433,0.261,-0.769,-11.719,0.427,2.747,15.337,-20.266
-0.440,0.271,-0.829,-1.038,-4.272,-0.122,15.379,-25.490
-0.427,0.202,-0.855,6.348,-0.366,2.502,15.094,-26.994
-0.417,0.236,-0.848,-2.930,-0.244,0.854,14.615,-26.527
-0.416,0.192,-0.876,1.709,-0.244,0.854,13.309,-25.747
-0.413,0.223,-0.857,-3.784,-0.305,0.793,12.576,-25.284
-0.408,0.219,-0.849,-4.517,0.122,1.221,12.864,-25.046
-0.425,0.219,-0.868,2.014,-0.427,0.854,12.547,-25.055
-0.406,0.202,-0.836,-0.977,-2.808,1.343,12.817,-25.147
-0.342,0.150,-0.768,-12.451,-28.992,-2.319,12.109,-24.852
-0.151,0.090,-0.902,-29.785,-67.932,-4.822,10.313,-21.060
-0.019,0.064,-0.996,-11.292,-73.547,-6.531,7.946,-14.554
0.250,0.007,-1.014,-19.958,-89.539,-4.211,4.818,-4.072
0.405,0.037,-0.943,2.563,-73.853,-4.639,2.929,7.146
0.626,-0.070,-0.803,-7.385,-75.806,-4.761,0.561,18.551
0.800,-0.075,-0.789,-10.498,-68.481,-0.427,-1.393,30.355
0.854,-0.061,-0.596,-0.183,-57.373,-0.610,-2.332,40.554
0.918,-0.086,-0.492,-6.165,-35.278,-1.526,-3.996,49.859
0.918,-0.073,-0.411,-18.494,-32.288,-4.089,-4.040,56.535
0.987,-0.052,-0.336,-7.874,-8.728,-1.770,-3.782,63.239
0.941,-0.028,-0.307,0.305,-3.784,-0.061,-3.361,67.450
0.975,-0.251,-0.330,-3.723,-4.211,2.625,-5.681,69.343
0.965,-0.077,-0.281,5.127,-1.770,-0.427,-5.724,71.195
0.990,-0.123,-0.278,8.179,-1.770,-2.136,-6.736,71.612
0.942,-0.126,-0.291,0.488,0.549,0.977,-8.106,71.273
1.003,-0.118,-0.277,10.803,-0.977,-2.014,-6.234,72.752

0.996,-0.090,-0.261,14.709,-6.714,-1.221,-6.389,73.056
0.992,-0.099,-0.243,-24.536,2.380,0.122,-6.080,73.613
0.981,-0.042,-0.231,3.113,5.005,4.272,-4.890,74.917
0.962,-0.086,-0.324,-0.061,10.010,4.944,-4.475,74.299
0.939,-0.057,-0.438,11.475,31.799,5.737,-4.006,71.879
0.918,-0.045,-0.650,21.973,86.182,8.545,-3.182,66.423
0.755,0.008,-0.714,-1.526,96.680,20.996,-2.475,59.179
0.577,0.053,-0.831,13.672,89.050,9.033,-0.560,50.467
0.354,0.176,-0.932,13.855,81.665,15.076,2.707,39.746
0.139,0.076,-1.012,29.907,84.106,18.066,4.544,27.522
-0.106,0.222,-0.906,13.794,73.364,15.381,7.880,14.526
-0.261,0.147,-0.817,0.427,48.035,13.550,9.596,1.922
-0.375,0.249,-0.772,-9.033,18.311,5.676,11.029,-9.595
-0.422,0.186,-0.822,0.000,1.038,0.671,12.882,-18.855
-0.424,0.200,-0.859,0.183,-1.709,0.549,12.296,-23.802
-0.414,0.168,-0.883,-4.944,-1.282,2.258,12.204,-25.492
-0.411,0.201,-0.859,-2.686,-1.709,1.282,11.212,-25.505
-0.414,0.179,-0.871,2.686,-0.244,1.770,10.994,-25.101
-0.407,0.165,-0.887,3.418,-1.038,0.671,10.436,-24.760
-0.411,0.159,-0.886,0.366,0.549,1.099,10.301,-24.711
-0.396,0.157,-0.868,-3.479,-1.892,0.427,9.663,-24.498
-0.402,0.147,-0.878,-7.507,-1.282,0.305,9.195,-24.328
-0.391,0.146,-0.880,-5.371,-2.014,0.061,8.960,-24.180
-0.363,0.145,-0.852,-3.174,-13.611,1.526,8.876,-23.739
-0.271,0.091,-0.837,-5.432,-35.400,-2.319,8.070,-22.263
-0.086,0.012,-0.989,-1.770,-69.824,-13.000,6.037,-17.256
0.071,0.062,-0.974,-29.480,-75.745,-2.686,4.778,-10.044
0.324,-0.099,-1.001,-5.920,-70.740,0.366,0.997,0.567
0.485,-0.092,-0.904,-11.963,-70.190,-2.197,-1.696,11.597
0.656,-0.076,-0.837,-21.729,-78.125,2.502,-2.914,22.430
0.761,-0.120,-0.752,12.329,-58.105,-0.549,-5.338,32.344
0.864,-0.108,-0.604,-6.714,-43.518,-1.099,-5.444,41.538
0.896,-0.042,-0.433,-15.625,-39.978,5.554,-4.788,50.172
0.962,-0.119,-0.392,6.836,-52.856,-2.258,-5.403,57.533
0.996,-0.224,-0.423,7.629,-3.662,-8.606,-6.760,62.720
0.968,-0.130,-0.235,7.324,9.521,3.906,-7.159,67.654
0.960,-0.127,-0.261,-4.089,-7.141,2.319,-8.331,69.629
0.972,-0.184,-0.281,-4.028,-3.784,1.404,-9.267,70.587
0.964,-0.092,-0.225,4.028,-7.141,0.732,-7.613,73.627
0.980,-0.162,-0.275,0.305,-4.517,-0.122,-8.016,73.004

0.979,-0.132,-0.286,1.770,-0.610,-0.549,-8.033,72.756
0.939,-0.173,-0.292,6.042,4.578,3.601,-7.938,72.546
0.947,-0.109,-0.318,0.488,0.793,1.038,-8.158,71.242
0.971,-0.119,-0.268,8.789,4.883,2.869,-7.571,71.524
0.946,-0.095,-0.403,2.258,13.916,3.113,-7.041,70.118
0.919,-0.078,-0.497,3.845,46.753,9.033,-5.626,67.841
0.882,-0.025,-0.654,9.705,80.505,11.047,-4.358,63.548
0.756,-0.048,-0.799,19.165,103.088,4.944,-3.324,55.964
0.542,0.072,-0.863,21.423,97.534,5.249,-1.071,47.760
0.309,0.029,-0.920,5.127,83.862,6.836,0.401,37.577
0.039,0.088,-0.995,25.513,78.796,11.353,2.047,24.706
-0.152,0.100,-0.894,-2.625,68.115,7.202,4.418,11.338
-0.305,0.094,-0.819,14.954,53.223,3.906,4.896,-1.702
-0.429,0.159,-0.793,0.061,23.193,0.916,6.978,-13.492
-0.457,0.071,-0.825,-0.549,0.061,2.258,6.729,-21.803
-0.470,0.170,-0.827,-7.568,-2.563,1.038,7.667,-26.715
-0.463,0.113,-0.837,3.296,-0.977,2.136,7.775,-28.707
-0.460,0.094,-0.850,2.502,-1.587,-0.061,6.681,-28.778
-0.452,0.100,-0.879,1.038,-1.831,0.183,7.036,-28.299
-0.445,0.077,-0.868,3.784,-0.305,1.221,5.638,-27.766
-0.441,0.106,-0.868,-1.587,-1.709,1.831,5.519,-27.278
-0.449,0.088,-0.857,-3.418,-2.319,1.709,5.427,-27.084
-0.439,0.080,-0.869,4.578,-2.502,0.610,5.159,-26.999
-0.390,0.063,-0.846,-4.822,-13.000,-0.488,5.009,-26.440
-0.304,0.079,-0.863,3.113,-42.175,-0.732,4.683,-24.638
-0.092,0.037,-0.880,-12.695,-72.510,-2.197,4.040,-19.464
0.125,0.018,-0.983,-19.409,-89.355,-2.686,3.104,-10.477
0.393,-0.092,-1.067,-35.217,-93.201,-2.319,0.641,1.837
0.512,-0.129,-0.928,2.991,-81.482,-0.427,-2.387,13.652
0.706,-0.065,-0.763,16.968,-69.824,-3.784,-3.703,24.842
0.830,-0.035,-0.665,5.249,-57.861,-2.441,-4.356,35.387
0.885,-0.083,-0.562,6.226,-36.804,0.305,-4.301,44.996
0.936,-0.030,-0.385,13.489,-41.992,-3.723,-2.954,54.624
0.953,-0.110,-0.391,-8.301,-38.879,-1.404,-3.581,60.740
0.990,-0.063,-0.314,-29.419,-2.747,4.089,-3.979,65.986
0.996,-0.075,-0.244,-11.597,2.625,2.991,-3.884,70.616
0.981,-0.109,-0.236,1.465,-0.366,-1.404,-4.981,72.468
0.963,-0.110,-0.263,3.113,-0.305,-0.916,-5.002,74.149
0.966,-0.081,-0.255,6.775,4.822,-2.319,-5.307,74.738
0.976,-0.069,-0.240,-0.793,1.099,2.075,-5.252,74.745
0.977,-0.099,-0.259,1.282,-2.625,0.916,-5.113,74.472

0.958,-0.043,-0.259,1.221,-0.427,1.709,-4.171,74.783
0.978,-0.102,-0.243,-1.526,6.958,3.296,-4.454,74.892
0.944,-0.065,-0.347,-3.113,13.977,0.000,-4.396,73.381
0.986,-0.092,-0.264,2.075,8.728,1.770,-4.283,73.383
0.948,-0.057,-0.371,3.723,10.742,0.427,-4.465,71.830
0.949,-0.099,-0.499,7.935,48.340,7.690,-4.360,68.416
0.861,-0.020,-0.610,2.258,75.806,4.639,-3.717,64.760
0.760,0.030,-0.796,26.917,98.083,-5.310,-2.001,57.040
0.568,0.033,-0.881,26.917,103.577,0.122,-0.760,48.394
0.254,-0.012,-1.021,19.165,102.661,17.517,0.434,36.442
-0.044,0.154,-0.963,7.385,97.656,8.545,2.967,22.753
-0.249,0.113,-0.759,6.287,62.256,8.484,4.502,8.273
-0.407,0.191,-0.781,-5.371,26.306,5.310,7.163,-7.165
-0.435,0.110,-0.783,14.526,4.761,3.174,9.293,-18.800
-0.443,0.193,-0.867,-0.916,-6.226,1.038,9.734,-25.290
-0.445,0.127,-0.877,3.784,-0.366,2.197,9.449,-27.196
-0.429,0.137,-0.843,2.747,0.610,3.052,8.490,-27.141
-0.442,0.152,-0.858,3.052,-1.038,1.465,8.937,-26.692
-0.433,0.155,-0.860,2.136,-0.305,0.305,8.415,-26.642
-0.419,0.117,-0.894,0.488,-1.709,-1.282,8.260,-26.210
-0.434,0.165,-0.877,-3.723,-1.892,-0.244,8.599,-26.041
-0.408,0.131,-0.864,2.441,-2.563,0.488,8.325,-25.582
-0.382,0.137,-0.840,-2.747,-12.390,0.000,8.146,-25.048
-0.266,0.101,-0.847,-5.737,-40.710,-2.258,8.131,-23.247
-0.146,0.050,-0.950,-7.812,-61.646,-6.042,6.457,-18.825
0.042,0.093,-0.990,-21.179,-75.439,-5.310,5.872,-11.650
0.234,0.098,-0.931,-19.836,-80.872,-1.282,5.249,-2.090
0.462,0.005,-0.920,10.010,-77.942,-2.930,3.676,8.846
0.636,-0.117,-0.926,14.343,-61.646,-2.441,1.141,20.029
0.768,-0.044,-0.724,-3.235,-67.810,-6.836,-0.805,30.944
0.833,0.010,-0.621,-8.118,-52.002,-3.784,-1.994,40.190
0.919,-0.035,-0.497,-16.724,-49.255,2.869,-2.529,48.678
0.974,-0.094,-0.404,-3.906,-42.969,-2.747,-2.242,57.190
0.980,-0.190,-0.387,-19.165,-11.414,-1.526,-4.239,62.440
0.980,-0.050,-0.216,-11.047,2.502,-2.930,-5.092,68.101
0.998,-0.118,-0.251,9.277,-3.906,1.526,-6.253,71.220
0.985,-0.132,-0.278,0.488,-2.197,2.563,-6.826,72.614
0.963,-0.049,-0.209,-3.235,-3.723,-0.671,-4.946,75.482
1.014,-0.119,-0.243,-0.671,0.366,0.000,-5.862,74.915
0.998,-0.091,-0.217,5.066,0.000,-0.366,-5.488,75.492

0.866,0.065,-0.229,-5.249,-4.028,-0.061,-2.817,76.553
0.974,-0.100,-0.200,3.540,5.005,8.423,-3.555,76.536
0.958,-0.045,-0.274,4.761,-4.578,-1.038,-2.516,76.156
1.039,-0.115,-0.218,-2.197,10.193,4.578,-2.840,76.210
0.953,-0.077,-0.297,9.583,2.197,1.831,-4.765,75.089
0.948,-0.037,-0.452,-2.625,39.551,9.033,-3.827,71.950
0.926,-0.062,-0.588,17.517,75.439,17.517,-3.989,67.751
0.790,0.072,-0.663,1.160,82.153,15.625,-1.435,61.032
0.652,0.171,-0.810,20.691,93.628,9.949,1.993,52.797
0.400,0.153,-0.976,23.010,101.257,22.217,4.655,42.165
0.149,0.177,-0.938,23.376,90.454,23.560,8.311,30.078
-0.056,0.125,-0.938,-3.174,79.468,20.508,9.284,17.113
-0.287,0.252,-0.760,9.155,46.936,8.423,11.076,3.195
-0.366,0.171,-0.815,6.836,4.822,2.991,11.726,-9.029
-0.378,0.185,-0.860,-10.254,-3.723,-1.343,11.699,-17.485
-0.386,0.261,-0.873,-3.784,-2.380,-0.610,13.576,-22.514
-0.373,0.219,-0.877,-1.221,-0.610,3.174,12.587,-23.098
-0.365,0.196,-0.893,4.761,-1.221,1.343,12.723,-22.612
-0.368,0.164,-0.898,3.052,-1.038,1.953,12.325,-22.284
-0.355,0.173,-0.898,-1.221,0.854,1.099,11.044,-21.834
-0.360,0.167,-0.900,-0.366,-0.671,0.488,10.261,-21.601
-0.358,0.170,-0.893,1.404,-1.038,0.854,9.896,-21.537
-0.337,0.160,-0.853,-0.488,-9.033,1.465,9.967,-21.366
-0.231,0.092,-0.885,-13.733,-35.461,0.000,8.913,-19.765
-0.120,0.084,-0.904,-18.494,-57.129,-3.052,7.819,-16.327
0.132,-0.001,-1.000,14.282,-79.102,-10.010,5.198,-8.644
0.298,0.076,-0.944,-24.780,-75.134,-11.292,3.857,1.219
0.535,-0.087,-0.953,-0.122,-87.769,-5.554,1.067,12.528
0.677,-0.103,-0.880,-22.827,-64.514,-3.296,-1.589,23.488
0.768,-0.059,-0.716,-1.465,-54.199,2.014,-2.371,33.080
0.874,-0.064,-0.561,6.226,-49.438,0.854,-4.241,42.392
0.918,-0.042,-0.468,3.601,-46.509,-2.136,-3.678,50.817
0.945,-0.077,-0.436,-7.874,-43.213,-2.258,-3.352,57.953
1.009,-0.109,-0.325,-37.781,-18.494,1.587,-4.019,64.171
0.947,-0.036,-0.185,-8.301,3.540,-2.014,-3.700,69.364
0.987,-0.175,-0.193,-8.362,-5.005,-2.075,-5.596,72.758
0.988,-0.034,-0.226,8.545,-5.554,2.563,-5.019,75.795
1.006,-0.189,-0.215,6.042,1.404,1.587,-6.181,76.706
1.001,-0.089,-0.187,5.737,-3.845,5.127,-6.851,76.504
0.990,-0.063,-0.176,6.470,-0.061,0.977,-5.282,77.443
0.991,-0.110,-0.198,3.052,-4.944,1.465,-6.337,77.318

1.001,-0.040,-0.211,-1.831,-1.648,-1.587,-4.252,78.245
0.981,-0.093,-0.173,5.798,2.258,3.540,-4.326,78.352
1.009,-0.177,-0.298,7.751,2.625,1.648,-5.877,76.247
1.002,-0.134,-0.222,2.502,8.179,2.502,-6.189,75.848
0.940,-0.075,-0.318,4.822,17.639,4.761,-6.732,74.121
0.963,-0.100,-0.404,5.737,35.095,6.470,-6.754,71.183
0.911,-0.042,-0.512,24.292,70.984,-2.258,-4.908,68.566
0.829,-0.071,-0.716,28.198,80.444,-2.747,-3.983,61.574
0.693,-0.051,-0.824,0.122,86.853,9.888,-3.601,53.967
0.500,0.011,-0.932,10.010,90.820,9.521,-2.093,44.470
0.242,0.081,-0.948,11.230,83.496,8.423,-0.430,33.514
0.027,0.098,-0.937,17.456,69.580,16.785,2.016,21.876
-0.155,0.172,-0.922,14.465,52.124,13.123,5.450,9.284
-0.297,0.120,-0.848,11.780,37.354,6.042,7.336,-2.845
-0.354,0.188,-0.815,7.874,7.324,3.845,9.105,-12.309
-0.387,0.165,-0.907,7.141,-2.075,2.563,9.922,-18.565
-0.371,0.152,-0.889,-4.028,-1.892,1.160,9.498,-21.835
-0.373,0.155,-0.904,-4.944,-1.282,1.404,9.813,-22.533
-0.370,0.188,-0.881,0.000,-1.099,-0.671,9.649,-22.394
-0.358,0.178,-0.887,-3.784,-1.160,0.427,9.902,-22.103
-0.367,0.175,-0.905,1.831,-0.427,1.404,10.207,-21.935
-0.353,0.170,-0.890,0.000,-0.916,1.770,10.467,-21.723
-0.357,0.137,-0.905,0.854,-1.282,-0.244,9.693,-21.477
-0.347,0.153,-0.877,-1.343,-3.113,-0.854,9.362,-21.396
-0.284,0.106,-0.819,-14.648,-28.870,-2.441,8.593,-20.766
-0.122,0.117,-0.891,-14.099,-63.354,-2.197,7.966,-17.467
0.019,0.063,-0.948,-27.954,-70.801,-2.197,6.932,-11.647
0.228,0.017,-0.965,-20.203,-71.411,7.446,4.778,-2.511
0.430,-0.081,-0.988,14.038,-61.890,-1.770,1.738,8.324
0.542,-0.032,-0.813,15.015,-65.308,-5.371,-0.485,18.178
0.758,-0.016,-0.701,-0.244,-67.505,-6.226,-1.614,29.445
0.884,-0.098,-0.624,13.611,-76.660,-5.493,-3.188,39.830
0.945,-0.059,-0.475,11.780,-51.147,-5.371,-2.875,50.052
0.933,-0.047,-0.409,-15.869,-28.809,-1.282,-3.026,57.766
0.956,-0.108,-0.331,-4.333,-6.104,0.610,-4.303,63.354
0.990,-0.083,-0.235,-8.972,-2.991,-1.465,-4.153,68.833
0.966,-0.092,-0.223,-15.991,-6.836,0.671,-4.686,72.085
0.982,-0.053,-0.189,2.136,-4.395,-0.427,-4.789,75.124
0.987,-0.112,-0.214,-2.075,-5.005,0.854,-4.834,76.736
0.973,-0.146,-0.254,-2.502,-2.319,2.563,-5.747,76.101
1.026,-0.093,-0.217,-0.427,2.502,0.549,-5.684,76.365
0.971,-0.135,-0.207,7.019,3.113,3.235,-6.837,75.609

0.988,-0.075,-0.245,7.385,-5.676,0.549,-6.317,75.465
0.973,-0.097,-0.200,-2.197,13.000,3.662,-5.646,76.408
0.989,-0.106,-0.333,-4.700,1.465,-1.404,-5.843,74.759
0.978,-0.073,-0.291,0.366,7.385,0.854,-4.935,74.011
0.965,-0.083,-0.377,2.197,25.330,6.714,-5.023,72.195
0.914,-0.051,-0.556,13.916,57.434,15.625,-4.320,67.565
0.855,0.043,-0.665,13.428,83.557,17.578,-2.253,62.948
0.684,-0.019,-0.843,17.578,96.436,19.836,-1.502,54.445
0.458,0.224,-0.918,12.207,108.215,26.184,2.707,44.261
0.191,0.283,-0.915,19.165,98.694,33.142,7.578,32.895
-0.081,0.179,-0.866,0.000,75.195,26.978,10.062,19.161
-0.274,0.230,-0.806,9.583,43.640,12.024,14.593,4.646
-0.358,0.208,-0.790,0.183,7.263,2.380,14.739,-8.491
-0.400,0.253,-0.844,-0.061,-3.235,0.122,13.996,-18.023
-0.394,0.197,-0.890,5.737,1.038,2.136,13.765,-22.467
-0.391,0.220,-0.870,3.906,2.380,1.160,13.250,-23.746
-0.376,0.203,-0.879,1.160,-0.061,-0.854,12.884,-23.484
-0.368,0.215,-0.868,-3.540,-1.160,0.916,12.300,-22.975
-0.380,0.213,-0.875,1.465,-0.610,1.343,12.601,-22.852
-0.375,0.196,-0.889,0.732,-0.610,0.244,12.219,-22.571
-0.380,0.192,-0.877,-0.488,-0.793,0.610,12.061,-22.653
-0.371,0.190,-0.880,1.892,-0.122,0.610,11.673,-22.655
-0.355,0.195,-0.852,-5.127,-4.761,0.610,11.502,-22.459
-0.276,0.129,-0.784,-15.747,-33.447,-3.052,10.909,-21.728
-0.033,0.082,-0.822,-14.282,-83.008,-3.357,9.690,-16.959
0.203,0.027,-0.994,-18.921,-97.717,-7.812,7.101,-7.527
0.413,-0.109,-1.016,-18.738,-82.031,-2.380,2.044,4.870
0.650,-0.095,-0.891,10.437,-85.388,-5.127,-1.387,18.337
0.739,-0.044,-0.812,10.559,-62.805,-4.333,-3.006,28.341
0.823,-0.064,-0.624,3.906,-45.959,-2.502,-4.207,38.032
0.923,-0.072,-0.480,-5.310,-50.232,-2.014,-3.745,48.025
0.956,-0.051,-0.375,-9.033,-50.781,-6.042,-3.200,56.210
0.987,-0.084,-0.312,-0.061,-17.151,2.441,-3.774,63.846
0.949,-0.111,-0.286,-15.076,-10.071,-0.488,-4.447,68.692
0.952,-0.051,-0.227,2.319,-0.427,-2.441,-4.207,72.173
0.982,-0.109,-0.196,5.066,-0.671,-0.977,-5.053,74.398
0.981,-0.110,-0.243,3.906,-1.404,2.319,-5.464,75.137
0.982,-0.083,-0.207,2.441,-2.441,0.061,-5.048,76.416
1.000,-0.121,-0.200,2.991,-0.305,1.038,-5.985,76.520
0.986,-0.120,-0.234,5.249,-3.235,-0.732,-6.130,75.991

