aX,aY,aZ,gX,gY,gZ,Roll,Pitch
0.512,0.155,-0.839,2.625,-7.935,3.174,8.952,31.000
0.539,0.290,-0.906,29.480,33.752,-9.644,12.329,30.291
0.514,0.132,-0.801,4.883,2.380,1.587,10.934,30.961
0.512,0.135,-0.757,6.531,2.319,-2.258,10.348,31.599
0.452,0.269,-0.764,-14.038,-4.456,3.723,12.247,31.199
0.534,0.432,-0.901,3.784,4.456,34.973,14.295,30.880
0.466,0.554,-0.941,37.537,18.616,66.772,19.643,28.359
0.380,0.645,-0.936,45.288,29.541,94.482,25.477,24.502
0.198,0.773,-0.914,58.289,36.743,113.220,30.908,19.703
-0.083,0.656,-0.733,58.533,37.109,113.220,35.728,12.320
-0.374,0.633,-0.545,59.937,33.020,99.426,40.835,1.667
-0.499,0.290,-0.321,43.701,27.649,75.500,41.835,-12.430
-0.664,0.050,-0.066,22.949,9.155,32.410,35.016,-34.830
-0.816,0.355,-0.147,0.183,-5.737,-2.686,27.149,-53.978
-0.876,0.477,-0.198,-11.292,-2.197,-2.869,21.675,-64.188
-0.836,0.529,-0.185,-4.028,2.075,-1.221,23.481,-64.379
-0.820,0.524,-0.179,-2.197,3.967,2.747,28.840,-58.985
-0.824,0.452,-0.180,-2.197,2.563,1.221,29.969,-57.774
-0.803,0.476,-0.169,3.601,0.916,1.160,30.535,-57.327
-0.820,0.472,-0.141,3.357,0.061,-1.648,29.979,-58.067
-0.826,0.502,-0.162,0.244,-2.136,-3.418,29.681,-58.439
-0.827,0.416,-0.198,-7.385,-2.380,-5.310,29.158,-58.824
-0.715,0.319,-0.196,-17.151,-5.615,-22.766,27.628,-59.942
-0.615,0.485,-0.265,-32.898,-15.137,-48.645,29.103,-57.391
-0.428,0.459,-0.479,-29.907,-22.278,-67.749,30.742,-51.870
-0.354,0.651,-0.532,-32.288,-23.926,-71.838,36.640,-41.177
-0.138,0.884,-0.591,-40.161,-17.822,-75.867,45.740,-26.318
0.037,0.871,-0.671,-34.485,-19.531,-75.806,49.615,-13.570
0.242,0.671,-0.752,-29.419,-21.973,-63.843,50.297,-3.046
0.345,0.599,-0.733,-34.973,-24.109,-60.974,47.316,6.794
0.482,0.546,-0.778,-19.104,-22.583,-55.603,40.585,15.546
0.584,0.368,-0.757,-1.465,-21.484,-37.537,32.375,23.928
0.555,0.383,-0.823,46.936,14.771,-4.822,27.363,28.473
0.557,0.395,-0.774,41.565,0.305,-3.113,23.916,31.470
0.559,0.495,-0.819,74.890,0.549,-15.015,22.860,32.269
0.617,0.581,-0.469,21.667,-5.920,-1.648,26.730,33.718
0.570,0.432,-0.538,-21.606,2.380,8.789,28.710,35.571
0.566,0.568,-0.569,-9.949,-0.916,3.479,31.945,36.123
0.562,0.594,-0.562,-22.766,-0.427,5.249,34.615,37.209

0.515,-0.020,-0.858,6.958,-6.409,1.892,25.106,36.620
0.511,0.021,-0.940,-16.052,3.723,3.357,17.746,34.340
0.510,-0.047,-0.869,-10.132,-0.427,4.150,8.104,32.635
0.486,-0.129,-0.866,-2.991,-1.892,-6.836,-2.454,29.751
0.491,-0.015,-0.916,-8.545,-7.263,-4.883,-2.363,29.070
0.522,0.005,-0.876,4.822,3.418,7.874,-2.615,29.639
0.506,0.198,-1.005,5.432,28.259,39.185,0.824,28.692
0.437,0.243,-1.004,28.809,50.842,66.833,5.769,27.090
0.257,0.222,-0.995,40.588,45.105,69.946,8.962,23.629
0.041,0.442,-0.948,52.368,45.471,65.247,14.943,16.829
-0.168,0.473,-0.865,48.767,48.096,70.007,19.706,7.966
-0.323,0.557,-0.740,50.415,51.025,74.829,25.491,-2.818
-0.507,0.528,-0.627,60.303,50.293,74.036,31.060,-14.297
-0.557,0.239,-0.372,52.002,51.147,59.631,30.659,-26.168
-0.719,0.099,-0.153,20.081,6.775,14.221,26.702,-41.648
-0.880,0.467,-0.207,5.493,-2.625,-3.296,24.046,-54.431
-0.850,0.496,-0.250,-3.540,0.977,-2.014,22.365,-61.533
-0.843,0.481,-0.236,-2.258,3.052,-1.892,24.424,-61.871
-0.813,0.427,-0.237,-1.709,1.160,-1.160,28.051,-58.325
-0.819,0.477,-0.239,1.526,-0.732,-0.916,28.525,-57.570
-0.839,0.479,-0.245,2.319,0.305,-1.953,28.390,-57.693
-0.819,0.466,-0.242,0.916,1.038,0.305,28.343,-57.639
-0.805,0.438,-0.255,3.052,-0.122,0.061,28.511,-57.340
-0.832,0.477,-0.230,-0.244,-1.770,-0.366,28.436,-57.499
-0.806,0.425,-0.247,-4.456,-2.014,-1.770,27.963,-57.814
-0.756,0.334,-0.228,-14.526,-8.362,-12.817,26.628,-58.892
-0.672,0.396,-0.329,-31.982,-22.766,-30.334,26.762,-57.787
-0.592,0.420,-0.481,-55.725,-40.833,-43.884,26.905,-54.261
-0.344,0.490,-0.709,-53.589,-51.941,-58.960,29.159,-44.608
-0.214,0.562,-0.910,-52.856,-61.523,-70.496,31.604,-30.735
0.056,0.334,-1.006,-53.833,-51.636,-62.805,28.755,-16.932
0.226,0.419,-0.953,-21.057,-47.302,-68.787,26.710,-3.948
0.404,0.336,-0.987,-16.907,-43.030,-56.763,23.029,6.412
0.487,0.229,-0.933,12.268,-45.410,-69.275,18.023,15.965
0.523,0.425,-0.978,32.471,0.305,-18.616,18.608,21.798
0.567,0.071,-0.758,-3.357,-0.732,-2.075,14.320,27.494
0.577,0.022,-0.811,-3.662,-7.385,-1.709,10.345,31.186
0.533,0.061,-0.830,-2.197,0.549,-1.282,8.181,32.712
0.556,0.049,-0.804,1.343,0.488,2.075,2.977,34.833
0.566,0.062,-0.874,10.986,0.793,0.122,2.778,33.884
0.565,0.069,-0.830,-3.967,3.967,5.615,3.440,33.564

0.548,0.080,-0.833,4.883,-4.333,1.526,3.692,33.704
0.556,0.089,-0.932,0.183,9.460,-0.732,4.148,32.692
0.537,0.058,-0.811,-2.319,0.122,0.305,4.163,32.820
0.524,0.001,-0.834,-2.991,0.366,-5.371,3.226,32.338
0.577,0.087,-0.733,1.770,-5.432,3.906,3.386,33.452
0.515,0.153,-0.905,10.010,15.076,20.691,4.365,33.129
0.522,0.505,-0.995,29.480,38.757,66.162,10.391,31.074
0.497,0.458,-1.016,41.016,51.025,102.173,15.941,28.772
0.267,0.424,-0.946,57.922,52.795,105.164,19.873,23.417
-0.048,0.514,-0.864,53.040,45.959,99.304,25.319,16.184
-0.382,0.530,-0.623,43.518,54.443,88.623,29.047,4.835
-0.545,0.357,-0.496,39.612,46.387,71.045,31.185,-11.588
-0.647,0.251,-0.259,23.132,29.114,41.443,30.829,-30.216
-0.731,0.158,-0.280,-9.521,14.038,16.541,24.544,-47.605
-0.830,0.309,-0.252,8.972,1.953,-1.526,19.496,-58.651
-0.876,0.494,-0.197,-1.038,2.563,0.793,20.530,-63.109
-0.850,0.398,-0.204,-2.625,3.418,-0.671,21.696,-63.367
-0.903,0.490,-0.197,-7.324,0.488,-1.770,25.393,-61.317
-0.843,0.419,-0.195,6.958,2.930,-1.587,26.826,-60.458
-0.840,0.440,-0.235,-3.113,-0.671,0.610,26.294,-60.626
-0.821,0.409,-0.221,-1.953,0.427,-0.305,26.602,-60.195
-0.813,0.393,-0.223,1.953,-1.648,-1.160,25.843,-60.499
-0.825,0.380,-0.200,-6.287,-7.080,-4.395,25.412,-60.793
-0.782,0.237,-0.224,-15.076,-14.893,-15.381,22.931,-62.828
-0.647,0.289,-0.352,-47.913,-33.936,-39.063,21.931,-61.880
-0.520,0.337,-0.545,-30.884,-50.415,-64.636,22.018,-56.817
-0.356,0.655,-0.751,-47.974,-55.176,-74.646,27.061,-43.717
-0.070,0.527,-0.951,-51.208,-51.575,-74.951,30.662,-26.702
0.048,0.572,-0.919,-16.418,-46.509,-64.758,32.434,-13.320
0.269,0.470,-0.881,-27.832,-37.231,-63.110,32.412,-1.512
0.448,0.310,-0.982,-22.827,-37.109,-53.406,26.335,9.438
0.523,0.203,-0.916,-31.677,-21.667,-40.222,21.664,17.799
0.484,0.184,-0.919,-18.250,-15.991,-20.203,15.958,23.967
0.665,-0.061,-0.692,-4.822,-5.920,1.953,8.813,30.732
0.506,0.047,-0.847,-14.099,2.686,1.831,5.306,32.695
0.542,-0.072,-0.841,9.155,-1.160,1.221,1.410,33.652
0.553,-0.118,-0.830,-1.953,2.075,7.019,-2.967,35.173
0.529,-0.030,-0.835,-2.991,0.183,2.502,-2.496,32.391
0.544,-0.087,-0.938,10.132,-2.625,-1.831,-4.319,32.079
0.551,-0.014,-0.841,-0.488,-0.671,2.075,-3.499,32.226
0.547,0.001,-0.825,-1.709,0.122,2.686,-1.840,32.235
0.553,-0.015,-0.849,2.747,-0.977,0.732,-1.610,32.416
0.548,0.000,-0.833,0.427,-0.122,1.160,-0.395,33.289

0.539,0.029,-0.844,6.042,-2.319,1.648,0.227,33.125
0.545,0.247,-0.776,26.794,14.709,-7.019,3.782,33.408
0.513,-0.008,-0.792,1.648,2.014,1.343,3.944,33.384
0.528,0.002,-0.888,-6.287,3.052,-7.324,3.938,32.691
0.512,0.159,-0.714,3.601,-1.160,6.287,6.010,33.286
0.520,0.352,-0.983,21.057,27.222,38.391,7.274,31.264
0.438,0.473,-1.046,48.279,44.739,76.111,13.396,27.964
0.324,0.435,-0.979,47.852,55.237,94.910,18.967,24.246
0.033,0.531,-0.844,52.490,52.795,97.900,23.764,17.201
-0.237,0.532,-0.688,34.485,44.983,95.093,28.708,7.813
-0.460,0.438,-0.655,50.049,42.969,68.481,31.313,-5.227
-0.656,0.412,-0.356,36.377,36.926,47.729,33.745,-22.509
-0.738,0.305,-0.279,22.888,20.020,27.283,30.380,-38.792
-0.808,0.318,-0.213,-0.977,9.338,8.362,25.731,-51.662
-0.754,0.342,-0.319,-0.854,-2.075,-1.648,23.429,-58.586
-0.819,0.425,-0.339,-2.686,-0.732,-1.587,22.681,-59.968
-0.775,0.419,-0.310,6.714,1.038,-1.526,24.045,-58.796
-0.801,0.446,-0.325,-2.380,0.610,-0.122,25.615,-56.529
-0.798,0.458,-0.310,2.869,-2.075,-0.732,26.924,-55.818
-0.818,0.448,-0.305,1.404,-0.122,-1.221,27.331,-55.806
-0.788,0.455,-0.301,-3.540,-0.610,-0.061,27.740,-55.628
-0.791,0.444,-0.318,4.395,-1.160,-0.732,27.785,-55.622
-0.805,0.493,-0.329,0.671,-0.610,-0.977,28.149,-55.199
-0.786,0.423,-0.333,-5.188,-1.282,-1.038,27.959,-54.989
-0.706,0.276,-0.284,-6.226,-6.714,-12.329,26.119,-56.203
-0.570,0.326,-0.329,-23.376,-23.071,-37.598,25.821,-55.343
-0.422,0.297,-0.572,-63.965,-50.476,-66.833,24.440,-50.982
-0.257,0.489,-0.791,-47.424,-69.641,-90.149,26.544,-39.013
0.055,0.622,-0.986,-38.757,-64.697,-90.027,30.604,-20.542
0.299,0.505,-1.018,-45.288,-50.171,-84.595,29.492,-4.815
0.452,0.275,-1.005,-39.490,-44.495,-59.631,26.218,7.359
0.497,0.193,-0.919,-11.169,-24.109,-39.917,21.077,17.071
0.591,0.167,-0.872,-1.648,-18.127,-28.931,15.078,24.785
0.551,0.118,-0.855,8.911,-4.211,2.014,10.153,29.277
0.582,-0.014,-0.874,-2.625,2.930,1.770,6.373,32.019
0.571,-0.010,-0.800,6.165,1.648,-1.831,3.648,33.928
0.555,0.046,-0.818,3.967,1.160,0.793,1.991,33.993
0.579,0.031,-0.833,-2.869,3.906,3.906,0.766,34.527
0.570,0.008,-0.839,4.333,1.831,-0.610,1.088,34.663
0.554,0.014,-0.835,2.441,-0.977,1.099,1.420,34.181
0.569,0.013,-0.838,-5.188,-3.113,2.869,0.942,34.195

0.563,0.046,-0.831,2.808,-3.174,1.282,1.149,34.016
0.536,0.195,-0.891,41.138,19.043,-10.803,3.772,33.130
0.527,-0.013,-0.836,3.906,4.333,-0.671,3.408,32.817
0.578,0.073,-0.748,0.122,2.075,-5.981,4.330,33.578
0.521,0.098,-0.640,11.353,1.526,0.061,5.317,34.595
0.577,0.378,-0.987,23.560,21.912,39.856,7.830,34.094
0.538,0.461,-1.080,49.316,43.518,91.614,13.824,31.602
0.339,0.540,-1.065,64.087,47.852,112.732,19.133,26.000
0.131,0.470,-0.903,66.956,54.138,112.488,23.109,19.651
-0.187,0.498,-0.659,64.148,44.373,87.402,27.435,11.061
-0.458,0.366,-0.504,33.447,25.208,65.430,30.886,-2.760
-0.551,0.306,-0.422,19.043,22.705,41.687,31.231,-19.669
-0.733,0.363,-0.292,21.851,8.057,5.554,29.680,-38.522
-0.761,0.534,-0.352,-1.892,-3.906,-1.953,27.986,-48.427
-0.771,0.511,-0.364,-2.197,0.793,-1.648,28.505,-51.588
-0.727,0.518,-0.411,-0.122,1.709,1.709,30.204,-51.344
-0.734,0.510,-0.376,3.357,1.831,-0.244,31.775,-49.440
-0.739,0.489,-0.374,-0.305,1.282,1.221,31.287,-49.492
-0.733,0.505,-0.365,0.793,1.221,0.549,31.470,-49.172
-0.744,0.504,-0.363,2.075,1.404,1.892,31.338,-49.792
-0.748,0.494,-0.355,-0.732,0.305,-0.061,31.104,-50.217
-0.744,0.500,-0.360,4.517,0.854,-0.366,31.243,-50.263
-0.738,0.504,-0.379,-1.892,0.183,-0.854,31.145,-50.231
-0.688,0.375,-0.362,-5.249,-2.502,-7.324,29.861,-50.892
-0.674,0.472,-0.337,-16.663,-8.789,-29.175,30.140,-50.505
-0.563,0.469,-0.521,-33.630,-19.409,-43.213,30.372,-47.697
-0.455,0.533,-0.603,-31.372,-28.564,-60.364,31.673,-42.488
-0.180,0.445,-0.759,-67.078,-45.044,-69.519,33.472,-32.518
0.075,0.587,-0.898,-48.157,-56.274,-74.036,34.166,-18.030
0.279,0.474,-0.993,-27.466,-50.781,-67.322,32.004,-4.171
0.349,0.417,-0.929,-23.193,-29.785,-53.772,28.009,7.348
0.514,0.275,-0.896,-6.836,-21.179,-46.326,24.148,16.503
0.584,0.139,-0.916,-10.254,-12.573,-28.564,17.598,23.570
0.535,0.142,-0.917,-4.639,-11.475,-13.428,13.151,27.629
0.516,0.130,-0.833,-14.709,0.916,2.441,9.349,30.628
0.543,-0.052,-0.898,-0.305,1.831,1.343,4.902,31.293
0.557,-0.021,-0.851,-1.709,-0.122,-0.488,2.770,31.539
0.568,0.034,-0.819,6.653,-1.526,1.831,1.282,32.695
0.553,-0.026,-0.853,0.671,1.587,2.930,-0.911,32.993
0.552,0.016,-0.808,-4.517,1.160,-0.610,0.044,33.807
0.551,0.020,-0.860,4.333,-4.028,0.854,0.627,33.656
0.550,0.011,-0.826,-0.610,-0.610,0.977,0.312,33.397
0.556,-0.011,-0.830,-0.793,-0.427,1.892,0.522,33.614

0.549,0.002,-0.838,1.709,-4.700,2.075,0.326,33.337
0.553,0.032,-0.902,19.531,13.062,-6.348,0.482,33.039
0.544,-0.014,-0.823,-9.521,2.930,2.319,0.119,32.996
0.558,-0.066,-0.836,-3.906,4.211,-6.714,-0.656,32.970
0.505,-0.032,-0.845,-0.427,-0.488,-2.686,-1.150,32.390
0.553,0.131,-0.865,17.029,0.916,11.841,0.266,32.676
0.479,0.355,-1.008,14.282,28.687,43.884,5.375,30.376
0.480,0.373,-0.987,29.846,51.697,72.876,11.095,27.979
0.318,0.415,-0.979,38.269,52.185,89.233,16.682,24.343
0.055,0.559,-0.885,44.739,51.025,95.032,22.641,17.523
-0.180,0.536,-0.788,70.557,52.002,91.431,26.965,9.327
-0.445,0.471,-0.562,53.894,35.583,62.805,31.563,-3.806
-0.556,0.233,-0.463,29.602,25.940,63.782,31.607,-19.125
-0.662,0.210,-0.316,14.038,13.794,20.691,27.242,-35.562
-0.789,0.311,-0.336,-4.333,-0.244,1.038,22.407,-49.724
-0.826,0.475,-0.353,-1.099,0.549,-2.258,21.068,-55.948
-0.773,0.472,-0.344,-1.709,0.305,-2.319,23.749,-56.835
-0.774,0.470,-0.357,4.761,0.488,-2.136,26.578,-54.956
-0.766,0.466,-0.346,3.479,-1.099,-1.648,28.722,-53.214
-0.782,0.490,-0.372,2.136,-0.488,0.427,29.143,-52.548
-0.776,0.473,-0.356,-0.732,1.038,0.977,29.100,-52.487
-0.771,0.469,-0.347,2.869,1.953,-0.610,29.134,-52.548
-0.798,0.469,-0.344,-4.089,4.578,2.869,28.960,-52.831
-0.760,0.460,-0.345,-2.319,0.610,-1.282,28.794,-53.110
-0.716,0.359,-0.329,-2.441,-4.517,-7.202,27.751,-53.869
-0.623,0.273,-0.345,-12.207,-15.259,-28.503,25.978,-54.444
-0.570,0.392,-0.458,-37.415,-33.691,-47.791,25.934,-51.902
-0.368,0.516,-0.661,-28.931,-41.199,-65.674,27.969,-43.949
-0.142,0.693,-0.765,-31.189,-41.565,-82.520,33.749,-30.320
0.010,0.572,-0.863,-15.991,-36.987,-80.933,36.388,-16.982
0.197,0.649,-0.926,-46.753,-31.860,-69.458,36.959,-4.297
0.339,0.452,-0.965,-25.330,-31.677,-57.800,33.738,5.439
0.441,0.418,-0.893,-12.207,-21.545,-49.255,28.945,13.210
0.537,0.327,-0.839,-10.010,-11.230,-33.752,25.170,20.416
0.528,0.114,-0.818,-8.179,-12.634,-12.939,18.268,26.180
0.559,0.153,-0.826,4.150,1.892,-0.977,14.345,30.364
0.564,0.059,-0.733,11.292,-7.690,-5.432,9.536,33.682
0.546,0.133,-0.794,-5.554,1.099,-1.099,6.792,34.429
0.569,0.112,-0.805,4.761,1.648,-0.732,6.732,35.038
0.520,0.096,-0.782,-6.714,0.977,4.883,5.986,35.005
0.564,0.132,-0.797,2.869,2.502,-1.953,6.977,34.386
0.565,0.120,-0.810,1.648,0.000,0.061,6.748,34.495
0.552,0.122,-0.812,0.061,-0.793,2.380,6.910,34.221

0.542,0.135,-0.842,2.380,-4.517,2.014,7.354,33.947
0.595,0.175,-0.697,17.212,21.729,-6.165,8.101,35.069
0.518,0.086,-0.817,-1.465,0.366,-0.183,7.648,34.489
0.536,0.095,-0.826,-9.644,4.822,-2.563,7.240,34.219
0.556,0.143,-0.861,6.042,2.014,4.333,7.320,34.223
0.552,0.218,-0.894,27.893,1.526,20.813,7.670,32.130
0.524,0.351,-0.949,19.104,23.132,48.523,11.027,30.910
0.435,0.419,-0.955,25.757,35.828,70.618,15.067,28.356
0.285,0.650,-0.878,49.805,40.283,88.379,21.817,24.051
0.081,0.597,-0.882,63.110,45.349,96.313,27.359,17.579
-0.205,0.617,-0.714,63.660,35.156,89.600,33.256,8.230
-0.346,0.447,-0.558,45.532,30.273,81.665,37.255,-2.783
-0.612,0.376,-0.304,14.282,19.592,50.720,37.181,-18.733
-0.704,0.321,-0.293,25.940,10.559,22.461,33.700,-36.020
-0.764,0.429,-0.336,-1.831,4.639,7.690,28.912,-48.229
-0.820,0.509,-0.308,-6.226,7.324,2.075,27.408,-54.703
-0.785,0.500,-0.240,0.916,3.906,1.099,28.133,-55.432
-0.786,0.520,-0.267,0.549,3.662,2.197,30.235,-54.251
-0.783,0.519,-0.280,-3.662,0.061,0.305,31.388,-53.796
-0.783,0.473,-0.243,0.671,3.235,2.136,31.357,-54.220
-0.793,0.500,-0.253,1.831,-0.488,-0.427,31.264,-54.221
-0.787,0.505,-0.266,-1.343,-1.099,-0.610,31.072,-54.395
-0.780,0.481,-0.267,0.793,-0.610,0.488,30.633,-54.856
-0.771,0.474,-0.291,-0.854,-1.404,-0.671,30.611,-54.468
-0.755,0.465,-0.288,-3.479,-0.977,-2.075,30.350,-54.297
-0.706,0.331,-0.268,-7.507,-6.104,-14.709,28.607,-55.426
-0.637,0.349,-0.346,-27.527,-15.808,-35.095,27.531,-54.961
-0.563,0.580,-0.427,-20.203,-22.156,-52.734,30.137,-50.690
-0.382,0.722,-0.618,-46.875,-26.611,-53.528,35.059,-41.510
-0.255,0.603,-0.675,-45.715,-32.349,-58.350,39.201,-31.001
-0.018,0.589,-0.826,-26.184,-32.104,-60.486,41.485,-18.866
0.068,0.687,-0.871,-20.630,-30.457,-63.354,40.488,-8.429
0.246,0.433,-0.934,-10.071,-31.860,-62.927,34.972,0.577
0.396,0.529,-0.906,-24.719,-28.992,-59.265,31.843,9.382
0.485,0.318,-0.864,-18.433,-24.780,-47.119,27.553,16.311
0.491,0.267,-0.819,-19.470,-13.672,-21.790,21.754,22.795
0.553,0.234,-0.843,7.324,-2.075,-4.883,18.902,27.554
0.558,0.098,-0.833,-17.517,0.244,5.310,13.053,30.937
0.517,0.104,-0.903,-22.400,0.000,6.897,9.961,31.411
0.565,0.101,-0.861,5.798,-0.793,-2.197,7.500,32.212
0.563,0.091,-0.816,-3.967,0.427,1.831,5.546,32.677
0.555,0.061,-0.782,-10.010,1.953,4.089,5.082,33.059
0.529,0.112,-0.834,10.193,4.089,-2.136,5.261,33.735
0.540,0.086,-0.832,-0.122,-1.160,1.709,5.098,33.677
0.536,0.115,-0.826,-3.235,0.488,3.479,5.456,33.258

0.558,0.078,-0.859,2.014,-3.662,3.174,5.607,32.677
0.540,0.229,-0.902,31.311,15.198,-13.489,7.150,32.180
0.541,0.002,-0.793,-46.143,11.780,0.183,6.021,32.563
0.529,-0.073,-0.897,-12.695,-0.244,0.061,3.317,32.076
0.520,0.074,-0.798,25.024,-4.639,-1.892,3.319,32.078
0.533,0.043,-0.837,-6.592,2.869,4.578,0.677,32.554
0.501,0.138,-0.944,13.367,17.273,15.869,2.578,30.893
0.489,0.237,-0.982,9.155,34.302,42.725,6.827,29.607
0.362,0.358,-1.024,33.325,47.119,63.904,10.391,25.994
0.246,0.524,-1.031,50.964,66.589,95.276,16.331,20.938
-0.037,0.476,-0.889,72.876,67.444,98.206,21.416,14.039
-0.281,0.443,-0.690,62.073,50.110,77.087,26.300,4.092
-0.466,0.457,-0.469,44.617,29.907,59.998,31.293,-8.465
-0.638,0.289,-0.431,35.583,20.691,40.833,30.219,-25.469
-0.752,0.359,-0.281,14.343,13.916,16.968,28.596,-41.358
-0.787,0.353,-0.352,2.319,6.775,4.944,25.502,-51.346
-0.819,0.436,-0.264,-5.127,2.380,-0.549,23.674,-56.869
-0.781,0.497,-0.320,-0.183,0.488,-0.488,26.036,-56.914
-0.792,0.476,-0.330,0.610,-1.282,-0.732,27.240,-55.693
-0.801,0.453,-0.298,-2.380,0.488,0.305,28.601,-55.163
-0.795,0.473,-0.280,0.366,-0.366,-1.038,29.201,-54.477
-0.790,0.459,-0.337,1.160,-0.854,0.000,28.607,-54.830
-0.804,0.432,-0.290,-4.395,-2.441,-2.136,28.052,-55.647
-0.757,0.385,-0.301,-11.047,-4.822,-7.324,27.421,-55.963
-0.677,0.355,-0.316,-20.325,-15.503,-28.076,26.478,-55.890
-0.601,0.392,-0.466,-25.391,-31.677,-50.781,26.366,-53.765
-0.404,0.496,-0.605,-20.691,-25.085,-59.631,28.756,-46.130
-0.294,0.726,-0.671,-30.212,-36.560,-63.538,34.610,-34.752
-0.035,0.518,-0.844,-49.805,-38.269,-64.331,36.216,-21.704
0.085,0.561,-0.907,-28.259,-40.527,-68.359,36.608,-9.667
0.332,0.396,-0.945,-45.471,-35.583,-61.401,33.147,1.262
0.419,0.268,-1.003,-16.418,-38.574,-50.964,24.719,11.085
0.432,0.219,-0.891,-22.949,-20.142,-36.804,20.052,17.529
0.561,0.026,-0.887,-18.738,-16.663,-15.503,12.462,24.455
0.524,0.137,-0.891,9.399,1.892,-1.953,8.909,27.439
0.551,0.041,-0.870,-4.578,-2.197,1.038,5.891,30.129
0.540,-0.034,-0.864,5.920,-2.686,0.305,2.364,31.767
0.543,0.068,-0.851,-1.892,-1.709,-0.732,2.977,31.791
0.545,0.059,-0.851,0.671,-0.366,2.625,1.892,32.359
0.532,0.109,-0.896,8.545,3.418,0.916,2.852,31.914
0.523,0.024,-0.831,7.080,1.099,2.319,3.689,31.920
0.526,0.027,-0.862,6.348,1.160,-1.404,3.102,31.663
0.533,0.047,-0.852,-0.183,-1.587,1.038,2.938,31.512
0.536,0.070,-0.844,-1.892,-1.343,1.709,2.407,31.965

0.527,0.075,-0.853,6.042,-3.296,1.038,3.118,31.830
0.493,-0.050,-0.965,29.846,19.104,-12.024,1.989,30.702
0.503,0.063,-0.850,6.836,3.052,-2.014,2.214,30.362
0.599,-0.027,-0.791,22.400,-9.094,-5.127,0.851,31.526
0.553,0.115,-0.861,-5.493,-1.282,4.150,1.414,31.775
0.501,0.124,-0.876,9.155,-1.038,2.441,3.917,32.467
0.499,0.225,-0.978,11.230,21.973,33.020,6.061,31.340
0.476,0.308,-0.991,20.935,31.555,55.115,10.348,28.196
0.309,0.518,-0.997,59.326,33.508,71.655,15.495,23.958
0.205,0.548,-0.989,65.674,46.814,87.952,20.726,19.242
-0.024,0.663,-0.844,70.862,43.579,94.727,27.331,12.587
-0.265,0.541,-0.626,55.664,33.875,89.722,33.239,3.113
-0.482,0.444,-0.470,31.372,28.564,83.557,36.359,-8.791
-0.588,0.289,-0.410,1.587,20.020,48.889,35.515,-24.048
-0.750,0.409,-0.202,2.197,13.916,14.709,31.986,-41.008
-0.911,0.499,-0.203,4.333,8.911,3.723,28.539,-52.653
-0.821,0.315,-0.261,7.568,2.869,1.404,24.930,-58.850
-0.835,0.460,-0.199,-7.935,-4.028,-1.587,26.145,-60.304
-0.838,0.418,-0.237,6.653,2.869,1.892,25.657,-60.634
-0.851,0.413,-0.228,-0.183,-0.671,0.000,24.826,-61.018
-0.815,0.431,-0.249,1.526,0.732,-1.038,26.442,-59.732
-0.814,0.444,-0.225,-2.686,-0.549,0.061,26.319,-59.589
-0.826,0.428,-0.227,1.526,-1.465,-2.625,26.547,-59.451
-0.808,0.374,-0.230,-7.446,-2.625,-8.179,26.304,-59.543
-0.720,0.327,-0.282,-26.672,-12.024,-28.442,25.411,-59.785
-0.635,0.412,-0.354,-33.203,-18.860,-43.823,25.839,-57.711
-0.438,0.490,-0.449,-19.348,-37.109,-67.993,28.817,-51.448
-0.311,0.696,-0.665,-46.936,-45.532,-69.580,35.123,-38.984
-0.109,0.648,-0.842,-67.566,-46.570,-68.420,39.242,-24.877
0.161,0.493,-0.943,-57.373,-50.049,-62.927,37.978,-10.623
0.344,0.313,-0.956,-44.800,-41.992,-52.063,32.260,1.205
0.438,0.255,-0.947,-61.096,-41.992,-46.387,24.336,11.590
0.519,0.074,-1.007,-29.053,-37.170,-37.598,15.414,19.995
0.530,0.049,-0.854,10.437,-3.601,-22.522,9.381,25.556
0.565,0.047,-0.800,27.283,-11.108,-8.484,5.841,29.451
0.603,-0.062,-0.847,42.480,-1.465,-8.911,1.485,32.270
0.586,-0.140,-0.814,13.367,-0.061,-0.610,-1.517,34.548
0.529,0.010,-0.924,-1.465,3.723,-0.427,-2.035,33.980
0.567,-0.017,-0.813,-2.136,2.869,-1.770,-2.914,33.877
0.550,-0.048,-0.836,10.864,0.000,-1.770,-2.752,33.346
0.559,-0.016,-0.814,4.761,1.526,1.587,-1.005,33.060
0.562,-0.011,-0.836,-0.854,0.183,2.441,-1.328,34.139
0.564,-0.021,-0.837,0.732,1.221,-0.183,-1.383,33.914
0.554,-0.019,-0.827,2.625,-0.977,0.793,-0.965,34.042
0.558,-0.020,-0.819,1.160,0.000,1.160,-1.029,33.987

0.551,-0.011,-0.840,2.686,-3.967,2.441,-1.023,33.823
0.542,-0.027,-0.937,14.404,5.798,-6.409,-1.082,32.774
0.551,-0.005,-0.831,-8.728,5.676,1.282,-0.886,32.716
0.521,-0.056,-0.855,-3.113,5.188,-3.662,-1.389,31.997
0.564,0.157,-0.869,8.057,-0.305,7.812,0.960,31.943
0.548,0.092,-0.820,29.724,2.014,13.611,2.674,32.869
0.467,0.323,-1.008,10.315,34.607,44.006,7.129,30.329
0.445,0.361,-0.999,48.462,51.453,66.101,12.483,27.974
0.273,0.473,-0.979,68.237,48.523,83.557,16.629,23.403
0.074,0.620,-0.857,77.026,46.204,90.759,23.720,16.569
-0.196,0.554,-0.723,67.566,42.236,88.135,29.097,8.310
-0.450,0.561,-0.520,59.814,30.396,77.515,35.525,-4.511
-0.580,0.482,-0.351,45.837,22.705,61.340,39.300,-19.222
-0.730,0.409,-0.281,27.100,28.259,35.339,36.499,-35.484
-0.788,0.318,-0.129,8.240,8.057,17.517,31.809,-49.398
-0.792,0.418,-0.057,4.883,3.357,2.563,28.423,-57.795
-0.858,0.437,-0.144,6.042,-0.122,0.549,26.118,-61.834
-0.849,0.426,-0.095,2.563,2.319,0.610,25.765,-63.269
-0.843,0.469,-0.109,-0.244,-1.587,0.000,27.484,-61.727
-0.861,0.439,-0.114,10.193,1.282,-0.610,27.248,-61.764
-0.854,0.475,-0.082,-2.136,0.305,-1.648,27.816,-61.453
-0.793,0.339,-0.111,-16.479,-6.470,-5.798,27.028,-62.127
-0.745,0.336,-0.162,-23.315,-18.188,-23.865,25.806,-63.001
-0.647,0.494,-0.318,-38.391,-33.325,-48.767,27.838,-59.693
-0.514,0.524,-0.504,-54.993,-38.208,-58.350,30.163,-53.243
-0.351,0.567,-0.667,-38.025,-36.987,-69.275,34.489,-41.703
-0.144,0.764,-0.750,-39.429,-39.795,-78.369,40.155,-27.031
0.120,0.500,-0.868,-42.053,-50.171,-76.111,38.813,-13.679
0.321,0.477,-0.974,-45.959,-41.504,-54.688,35.302,-0.762
0.385,0.365,-0.920,-28.076,-38.940,-57.800,30.487,9.470
0.500,0.260,-0.969,-11.719,-30.579,-36.987,22.029,18.091
0.552,0.104,-0.927,-8.911,-11.780,-22.400,16.116,23.852
0.597,0.088,-0.764,14.771,-8.179,-13.245,11.233,28.981
0.593,0.061,-0.871,-0.732,-2.014,-1.160,7.002,32.129
0.587,0.009,-0.797,4.761,2.808,0.061,3.675,34.642
0.557,0.103,-0.878,38.147,11.841,-6.531,3.688,35.101
0.564,0.063,-0.802,-15.686,2.441,3.418,3.324,34.433
0.549,0.061,-0.834,-5.676,0.671,1.770,3.357,34.211
0.541,0.068,-0.864,-4.761,-0.488,-1.343,4.176,33.097
0.568,0.042,-0.827,-5.981,1.221,0.610,3.348,33.652
0.544,0.027,-0.830,0.000,0.122,0.610,2.835,33.210
0.562,0.036,-0.829,2.991,0.427,2.441,2.476,33.418
0.536,0.106,-0.864,3.601,4.395,2.930,3.019,33.354
0.553,0.023,-0.812,3.174,2.502,1.038,2.765,33.310
0.535,0.032,-0.841,1.526,-0.854,1.465,2.834,33.114
0.553,0.048,-0.832,-3.296,-0.488,1.709,3.010,32.987
0.549,0.027,-0.847,-0.061,-2.563,2.075,1.872,33.305
0.555,0.024,-0.826,-0.732,0.122,1.282,1.879,33.211
0.558,0.024,-0.833,2.502,-0.549,0.854,1.761,33.560
0.562,0.027,-0.841,-0.183,-1.709,1.282,1.455,33.594

