aX,aY,aZ,gX,gY,gZ,Roll,Pitch
0.263,0.807,0.35,8.972,-2.441,4.333,61.508,16.635
0.328,0.97,0.373,-28.32,-2.441,-8.484,62.281,17.109
0.243,0.983,0.214,-20.386,-12.268,12.573,65.559,15.964
0.16,0.893,0.151,19.165,13.55,28.809,68.036,14.609
0.218,0.916,0.416,42.847,21.057,12.817,68.352,13.553
0.217,0.846,0.765,-22.034,-31.921,-1.648,64.212,11.975
0.094,0.904,0.464,6.653,-33.752,10.681,61.615,9.806
0.085,0.918,0.532,29.114,-41.016,10.132,57.741,8.335
-0.031,0.812,0.531,31.494,-58.655,5.127,56.29,5.011
-0.167,0.771,0.567,21.851,-65.002,-10.01,58.395,-0.269
-0.257,0.779,0.533,33.569,-61.34,-13.184,56.209,-5.376
-0.343,0.715,0.55,30.029,-44.312,-5.249,52.957,-11.945
-0.398,0.662,0.568,35.095,-43.396,-10.132,49.443,-17.6
-0.471,0.603,0.506,22.4,-37.659,-11.536,46.605,-22.753
-0.519,0.632,0.56,23.315,-35.095,-11.475,43.154,-26.953
-0.563,0.598,0.512,23.804,-27.466,-7.69,40.715,-30.658
-0.603,0.546,0.512,21.973,-21.973,-10.315,38.39,-34.249
-0.621,0.555,0.543,13.794,-18.982,-13.977,36.613,-36.157
-0.631,0.583,0.491,7.324,-23.132,-11.414,35.71,-38.192
-0.65,0.594,0.479,8.667,-16.541,-3.357,35.276,-39.409
-0.672,0.554,0.45,11.23,-10.315,1.282,35.255,-40.493
-0.695,0.533,0.407,12.573,-5.798,2.197,35.145,-42.308
-0.695,0.539,0.433,1.038,-4.028,-0.427,34.436,-43.7
-0.691,0.56,0.456,2.502,1.343,-2.258,33.83,-44.552
-0.692,0.518,0.453,8.301,1.16,-1.831,33.238,-45.025
-0.694,0.568,0.47,4.272,-0.244,-0.122,33.407,-44.328
-0.691,0.547,0.434,6.958,3.906,2.075,33.533,-44.214
-0.703,0.508,0.47,-2.014,8.362,4.211,32.762,-44.652
-0.671,0.543,0.475,-5.554,14.832,5.981,33.108,-44.104
-0.647,0.53,0.513,0.732,18.494,6.104,32.759,-43.608
-0.641,0.521,0.58,1.587,18.066,8.484,32.079,-42.277
-0.607,0.477,0.571,-4.456,18.005,14.893,31.792,-40.753
-0.614,0.538,0.579,-8.484,23.743,14.648,31.534,-39.435
-0.536,0.515,0.598,-15.625,20.935,19.653,31.52,-37.694
-0.554,0.568,0.611,-26.184,14.709,13.367,32.415,-36.194
-0.57,0.538,0.659,-12.207,19.531,6.653,32.864,-34.861
-0.539,0.573,0.666,-13.977,14.648,4.333,33.18,-33.26
-0.513,0.58,0.66,-3.235,12.512,6.897,33.703,-32.302
-0.501,0.554,0.653,-4.028,12.085,4.211,33.543,-31.501
-0.491,0.548,0.601,-8.423,10.315,5.066,34.416,-30.811
-0.489,0.614,0.627,-7.874,14.16,6.409,35.397,-30.21
-0.453,0.642,0.647,-7.507,7.812,9.705,36.526,-29.219
-0.447,0.58,0.602,-4.028,12.146,3.052,37.476,-28.667
-0.458,0.643,0.641,-5.188,6.958,0.122,38.455,-27.592
-0.464,0.625,0.6,0.183,8.118,4.272,38.91,-27.349
-0.443,0.654,0.587,-3.418,13.245,4.089,39.54,-27.443
-0.41,0.674,0.623,-2.625,14.404,2.991,40.627,-26.434
-0.377,0.643,0.604,-5.127,14.709,0.366,41.355,-25.54
-0.366,0.674,0.632,-5.554,15.137,4.456,42.173,-23.888
-0.289,0.624,0.58,-4.639,30.518,-1.404,42.718,-21.954
-0.261,0.712,0.682,-6.653,29.114,-5.005,43.335,-19.524
-0.17,0.742,0.616,0.061,30.823,-2.563,45.194,-16.25
-0.06,0.73,0.607,3.418,33.691,-2.686,47.158,-11.743
-0.014,0.745,0.657,-1.343,31.311,0.854,48.285,-7.385
0.056,0.752,0.661,-4.7,26.428,-1.038,49.362,-2.746
0.112,0.725,0.62,-4.7,19.592,-3.479,49.213,1.394
0.143,0.779,0.595,-11.719,15.564,-2.563,49.637,4.334
0.212,0.859,0.511,2.563,22.827,-6.958,51.889,7.596
0.279,0.772,0.511,2.075,16.235,-7.935,53.058,10.966
0.26,1.035,0.493,-13.245,5.493,4.822,56.369,12.485
0.337,0.868,0.469,-31.25,-6.714,2.563,57.374,15.035
0.287,0.875,0.41,7.935,2.136,-2.747,58.057,16.152
0.312,0.809,0.512,11.292,7.385,2.808,58.118,16.451
0.295,0.791,0.515,12.817,-2.502,-0.244,55.846,17.736
aX,aY,aZ,gX,gY,gZ,Roll,Pitch
0.225,0.648,0.609,7.08,0.244,-2.319,53.266,16.677
0.325,0.873,0.545,-23.56,-1.282,-3.052,51.669,16.891
0.293,0.844,0.49,2.686,0.916,3.845,52.291,16.568
0.233,0.783,0.526,6.836,2.991,13.123,52.429,15.72
0.288,0.756,0.513,8.118,5.676,7.263,53.997,16.447
0.242,0.736,0.557,-14.038,-12.451,-4.089,53.152,15.723
0.22,0.859,0.549,1.221,-20.081,1.648,53.04,14.513
0.174,0.765,0.535,19.409,-17.7,-4.028,53.06,13.707
0.172,0.815,0.643,11.353,-24.109,-5.066,52.662,11.674
0.094,0.73,0.598,19.043,-29.48,-2.686,52.679,9.537
0.02,0.702,0.627,17.151,-19.714,-11.597,50.919,6.815
0.027,0.703,0.689,5.737,-14.832,-6.531,48.873,4.591
0.026,0.717,0.739,6.592,-22.4,-7.69,47.012,2.461
-0.031,0.66,0.733,9.277,-20.569,-7.996,44.921,0.625
-0.072,0.645,0.719,11.475,-25.757,-13.794,43.403,-0.707
-0.084,0.636,0.747,16.846,-24.902,-9.705,42.088,-2.32
-0.141,0.597,0.742,11.78,-31.311,-13.428,40.618,-4.82
-0.21,0.604,0.747,11.108,-25.085,-8.606,39.625,-7.491
-0.267,0.615,0.739,7.568,-20.691,-9.888,38.734,-10.321
-0.288,0.551,0.77,16.479,-24.353,-2.686,37.082,-13.338
-0.352,0.534,0.729,13.062,-21.423,-2.625,35.856,-16.5
-0.384,0.495,0.712,12.207,-15.259,-8.423,34.28,-19.337
-0.409,0.527,0.734,6.165,-15.808,-3.357,32.765,-21.581
-0.457,0.508,0.727,11.902,-11.841,-1.892,31.922,-24.21
-0.471,0.479,0.705,10.559,-12.939,-2.869,30.937,-26.115
-0.509,0.411,0.693,6.897,-19.226,-6.897,29.505,-28.167
-0.536,0.48,0.668,5.554,-16.724,-6.47,28.778,-30.382
-0.522,0.503,0.612,6.226,-11.292,-7.202,29.098,-31.948
-0.586,0.506,0.66,10.193,-11.963,-8.118,29.199,-33.542
-0.605,0.516,0.601,13.489,-11.23,-2.991,30.58,-34.794
-0.615,0.462,0.614,7.935,-10.437,-0.427,30.255,-36.183
-0.635,0.466,0.601,5.615,-10.132,1.404,29.285,-37.759
-0.645,0.412,0.614,3.052,-6.897,0.793,28.026,-39.267
-0.662,0.432,0.565,-1.465,-15.015,-1.587,26.837,-40.633
-0.723,0.422,0.517,4.456,-6.775,-2.258,26.214,-42.79
-0.719,0.459,0.497,5.432,-4.272,-0.671,26.128,-44.564
-0.714,0.478,0.508,2.441,-1.099,-1.831,27.05,-45.701
-0.727,0.464,0.506,3.479,1.587,0.732,27.329,-46.612
-0.722,0.48,0.55,3.418,2.197,2.441,27.948,-45.935
-0.718,0.437,0.501,1.831,2.686,-0.122,27.667,-46.039
-0.716,0.449,0.512,0.916,5.676,0.183,27.266,-46.228
-0.694,0.42,0.567,10.376,14.404,2.441,26.653,-45.711
-0.68,0.451,0.578,-0.854,5.981,5.371,26.388,-45.255
-0.686,0.413,0.594,-1.099,7.996,6.775,25.87,-44.337
-0.659,0.394,0.579,6.287,13.794,12.451,25.155,-43.531
-0.671,0.373,0.584,-3.113,11.475,14.221,24.571,-43.423
-0.637,0.362,0.631,-4.15,13.916,10.254,23.366,-43.021
-0.651,0.399,0.624,-13.428,22.461,14.587,23.203,-42.47
-0.586,0.387,0.689,-11.78,15.869,15.137,22.974,-40.786
-0.591,0.327,0.671,-10.559,17.944,13.977,22.311,-39.389
-0.58,0.398,0.699,-21.362,23.56,9.033,22.727,-38.035
-0.469,0.47,0.722,-16.907,26.978,4.395,23.932,-34.838
-0.406,0.543,0.704,-22.217,27.649,5.554,26.634,-31.864
-0.355,0.541,0.638,-37.537,28.931,3.357,30.57,-28.152
-0.334,0.65,0.756,-10.071,29.968,7.568,34.332,-23.607
-0.272,0.64,0.65,-9.399,21.606,11.475,37.716,-20.627
-0.24,0.618,0.652,7.996,33.386,7.385,39.675,-18.247
-0.162,0.628,0.705,5.737,38.757,3.54,40.764,-15.041
-0.058,0.623,0.721,12.939,56.763,4.761,41.615,-11.167
0.048,0.642,0.765,-2.808,43.457,7.324,41.147,-6.201
0.135,0.653,0.721,-0.122,40.222,14.832,41.16,-0.555
0.195,0.647,0.719,7.141,35.156,12.146,41.072,4.695
0.252,0.612,0.691,3.174,25.452,5.798,40.763,9.267
0.282,0.692,0.601,-29.846,27.161,3.113,42.272,12.899
0.396,0.662,0.613,29.785,6.958,-4.578,42.475,16.902
0.295,0.665,0.539,3.479,9.399,-2.319,43.906,18.847
0.429,0.693,0.544,6.348,-2.014,3.601,45.216,21.539
0.342,0.748,0.543,0.549,1.648,-0.793,45.979,22.338
0.369,0.724,0.538,6.226,-3.418,-1.77,47.442,21.951
aX,aY,aZ,gX,gY,gZ,Roll,Pitch
0.325,0.676,0.59,8.667,0.977,1.953,46.905,22.14
0.387,0.619,0.554,-10.62,-0.854,5.127,46.314,21.847
0.338,0.743,0.561,-4.822,1.099,1.343,46.129,21.742
0.295,0.754,0.603,-15.32,-5.249,4.333,46.265,20.369
0.309,0.76,0.472,0.793,-0.305,8.301,48.323,20.178
0.279,0.74,0.591,-7.08,-13.123,0.366,49.728,18.098
0.252,0.799,0.494,-1.77,-19.958,1.892,51.373,16.874
0.224,0.797,0.524,12.39,-27.954,-1.709,52.948,15.907
0.138,0.81,0.573,-4.211,-22.156,-7.69,53.137,13.12
0.148,0.824,0.541,10.681,-19.165,-3.723,54.971,11.128
0.153,0.77,0.616,10.803,-16.602,-8.545,53.715,9.605
0.1,0.741,0.648,16.113,-27.222,-6.104,52.207,7.782
0.045,0.723,0.655,21.851,-29.358,-4.517,50.727,6.485
0.027,0.661,0.733,15.442,-27.466,-9.155,47.281,4.736
-0.051,0.633,0.711,16.235,-26.672,-13.55,45.072,1.789
-0.092,0.609,0.756,18.982,-18.433,-9.338,42.59,-1.047
-0.109,0.59,0.838,14.709,-25.33,-8.484,39.296,-3.274
-0.161,0.518,0.834,27.588,-27.527,-10.01,36.587,-6.014
-0.223,0.457,0.785,22.278,-27.527,-17.517,33.663,-8.583
-0.32,0.472,0.802,13.184,-20.203,-14.221,31.252,-11.948
-0.354,0.439,0.86,17.944,-14.404,-12.451,28.691,-15.619
-0.342,0.41,0.84,14.099,-12.146,-6.897,26.857,-18.342
-0.358,0.376,0.829,4.944,-18.738,-9.094,25.224,-20.177
-0.413,0.384,0.809,10.315,-12.695,-6.165,23.807,-21.587
-0.448,0.399,0.796,8.972,-16.968,-5.676,23.384,-23.267
-0.48,0.366,0.763,9.705,-13.489,-7.141,22.834,-25.626
-0.527,0.376,0.747,9.644,-11.108,-8.484,22.77,-28.301
-0.535,0.368,0.755,11.23,-10.742,-9.155,22.455,-30.242
-0.544,0.376,0.722,5.737,-10.559,-6.287,22.191,-31.999
-0.584,0.338,0.731,6.897,-11.169,-3.662,21.62,-33.587
-0.59,0.343,0.684,4.028,-7.446,-4.578,21.235,-34.931
-0.616,0.312,0.676,10.071,-4.822,-2.625,20.524,-36.712
-0.616,0.363,0.709,5.981,-7.324,-5.066,20.157,-37.716
-0.632,0.361,0.668,11.353,-5.005,-1.587,20.549,-38.686
-0.646,0.343,0.675,4.822,-3.784,-2.258,20.393,-39.392
-0.653,0.338,0.657,2.991,-2.502,-2.441,20.686,-39.851
-0.645,0.337,0.663,5.066,-2.93,-2.869,20.4,-40.659
-0.662,0.343,0.648,3.784,-2.747,-1.343,20.122,-41.238
-0.671,0.337,0.638,1.465,-1.16,0.549,20.085,-41.849
-0.683,0.343,0.639,1.221,2.197,0.427,20.117,-42.311
-0.68,0.359,0.636,-3.296,8.728,4.333,20.395,-42.817
-0.641,0.352,0.642,-3.906,11.475,10.132,20.625,-42.601
-0.625,0.372,0.68,-10.132,10.071,14.771,21.113,-41.592
-0.601,0.349,0.65,-11.78,15.625,14.587,21.45,-40.573
-0.594,0.335,0.669,-19.348,17.578,8.728,21.296,-39.438
-0.565,0.417,0.694,-15.747,22.949,16.846,22.256,-37.853
-0.509,0.503,0.745,-27.161,22.522,17.273,24.172,-35.427
-0.483,0.496,0.685,-25.085,19.592,18.86,26.405,-33.127
-0.478,0.547,0.641,-29.785,21.729,22.644,29.748,-30.977
-0.44,0.586,0.69,-25.085,33.875,20.447,32.408,-28.705
-0.406,0.572,0.731,-27.893,30.701,18.005,33.786,-27.178
-0.378,0.635,0.703,-10.681,32.349,17.09,35.769,-25.172
-0.333,0.651,0.682,-12.207,26.489,14.893,37.298,-22.698
-0.283,0.582,0.704,-1.282,24.841,10.315,37.775,-20.573
-0.251,0.638,0.684,-6.348,31.555,5.615,39.514,-18.407
-0.156,0.704,0.741,-1.953,30.701,2.563,40.735,-15.004
-0.135,0.621,0.74,-2.075,25.635,5.981,40.452,-12.128
-0.086,0.74,0.709,-22.949,12.39,-1.16,42.581,-9.03
-0.051,0.727,0.641,-4.272,23.987,3.906,44.28,-6.13
-0.011,0.745,0.671,-6.653,26.367,4.944,45.585,-4.076
0.021,0.755,0.647,-3.357,19.165,6.348,47.996,-1.81
0.064,0.761,0.625,-2.625,11.963,4.395,49.142,0.347
0.067,0.772,0.598,-2.136,15.93,-1.465,49.991,2.054
0.095,0.785,0.601,4.211,11.536,2.502,51.048,3.599
0.138,0.717,0.631,10.376,9.46,-4.578,50.724,5.343
0.206,0.748,0.589,30.334,4.761,-11.841,50.723,7.463
0.168,0.772,0.566,0.854,0.305,-1.526,50.817,8.963
0.24,0.807,0.598,6.958,4.822,0.366,50.607,11
0.186,0.751,0.572,1.16,2.014,-1.587,51.385,11.711
0.205,0.742,0.567,9.521,1.648,2.686,51.575,11.749
0.175,0.809,0.58,17.7,-6.104,-2.258,51.736,11.742
aX,aY,aZ,gX,gY,gZ,Roll,Pitch
0.192,0.705,0.641,8.362,0,0.61,50.505,11.227
0.204,0.742,0.593,4.944,-4.395,-0.977,50.126,11.46
0.182,0.79,0.598,-4.15,-0.549,1.892,50.306,10.965
0.195,0.728,0.553,5.371,7.568,10.254,49.763,11.478
0.197,0.732,0.611,7.019,8.118,3.235,50.331,11.543
0.235,0.758,0.651,-16.663,1.892,-1.343,49.761,11.856
0.178,0.805,0.544,1.404,-15.015,-1.953,50.498,11.862
0.174,0.763,0.648,-2.625,-16.541,-3.906,49.896,11.306
0.106,0.723,0.599,3.784,-23.926,-6.592,50.224,10.056
0.086,0.762,0.59,14.343,-14.038,-2.258,51.343,7.993
0.068,0.716,0.647,6.104,-8.911,-2.197,49.615,6.407
0.061,0.715,0.695,8.24,-11.658,-2.319,48.83,4.76
0.047,0.69,0.677,9.033,-10.01,-4.639,47.729,3.867
0.059,0.688,0.715,5.737,-10.498,-7.141,45.68,3.441
0.032,0.66,0.739,11.108,-10.498,-9.521,44.188,2.9
0.001,0.647,0.731,8.484,-17.883,-8.057,43.138,2.04
-0.027,0.629,0.806,10.864,-22.705,-1.953,41.247,0.948
-0.063,0.584,0.762,12.573,-25.635,-2.625,39.662,-0.819
-0.113,0.554,0.779,12.207,-24.048,-12.329,38.039,-2.958
-0.181,0.534,0.805,11.353,-26.245,-15.076,35.929,-5.62
-0.228,0.552,0.754,19.043,-25.696,-17.883,35.186,-8.722
-0.237,0.519,0.797,16.602,-19.47,-17.639,33.804,-11.277
-0.29,0.481,0.795,18.433,-20.935,-11.902,32.407,-13.904
-0.351,0.449,0.817,13.306,-19.043,-14.038,30.842,-16.457
-0.348,0.439,0.794,7.263,-25.208,-16.479,28.837,-18.243
-0.38,0.485,0.781,13.489,-20.569,-16.785,28.127,-20.362
-0.429,0.454,0.753,8.301,-23.499,-13.855,27.649,-22.512
-0.491,0.452,0.715,9.094,-23.254,-13.855,27.871,-24.884
-0.497,0.492,0.719,6.165,-19.287,-8.24,28.485,-27.059
-0.55,0.465,0.66,0.793,-20.081,-4.272,28.286,-30.022
-0.594,0.487,0.635,7.019,-12.939,-1.099,28.69,-32.671
-0.579,0.489,0.584,10.864,-9.888,-0.305,29.494,-34.418
-0.645,0.435,0.63,13.062,-6.287,-2.686,28.534,-37.084
-0.635,0.47,0.638,3.601,-9.705,-1.709,28.299,-38.191
-0.668,0.426,0.63,10.803,-7.935,3.601,27.184,-39.389
-0.689,0.414,0.566,5.371,-10.071,2.136,25.794,-41.136
-0.698,0.374,0.579,10.742,-5.615,-0.427,24.979,-42.425
-0.703,0.394,0.549,5.066,-7.507,-3.296,24.033,-44.288
-0.75,0.401,0.542,5.005,-0.732,-0.793,23.664,-46.015
-0.717,0.388,0.538,4.211,-4.517,-0.488,23.283,-46.693
-0.739,0.375,0.516,5.859,0.549,-1.709,23.324,-47.652
-0.731,0.402,0.508,4.822,5.92,2.808,23.443,-48.234
-0.725,0.378,0.519,-0.61,10.437,8.85,23.325,-48.348
-0.703,0.422,0.556,-9.399,16.113,11.658,23.789,-47.838
-0.707,0.412,0.508,-25.146,12.207,17.151,24.473,-47.338
-0.672,0.382,0.647,-20.874,22.156,14.221,23.968,-45.681
-0.602,0.441,0.7,-16.724,25.391,7.568,24.663,-42.528
-0.591,0.437,0.69,-10.925,22.217,7.446,24.794,-40.179
-0.526,0.434,0.645,-14.282,28.687,13,25.234,-37
-0.478,0.45,0.793,-10.803,27.161,7.812,26.195,-33.397
-0.443,0.443,0.715,-14.343,21.423,6.714,26.761,-31.346
-0.396,0.523,0.729,-12.146,24.902,12.695,28.406,-28.286
-0.371,0.567,0.731,-17.334,22.034,10.498,30.146,-25.311
-0.351,0.6,0.746,-12.695,22.034,13.55,32.789,-23.342
-0.287,0.609,0.75,-4.883,24.658,13.55,35.084,-20.567
-0.237,0.593,0.727,-7.69,26.794,8.606,36.464,-18.209
-0.214,0.608,0.783,-1.526,25.635,6.226,37.012,-15.781
-0.18,0.606,0.764,-0.122,19.714,5.127,37.401,-13.347
-0.146,0.616,0.753,-1.16,19.287,3.906,37.796,-11.333
-0.095,0.611,0.742,4.028,25.879,8.423,38.152,-9.257
-0.051,0.594,0.768,-7.507,24.17,3.479,38.391,-6.943
0.007,0.645,0.755,-3.235,23.804,0.977,39.125,-4.183
0.047,0.66,0.731,3.784,17.639,5.92,39.94,-1.345
0.067,0.668,0.707,0.122,18.555,7.446,40.927,1.03
0.131,0.691,0.712,6.897,30.762,3.662,42.42,3.662
0.187,0.615,0.726,5.249,19.409,6.042,42.181,6.322
0.217,0.64,0.733,1.526,9.949,4.639,41.654,8.791
0.195,0.623,0.743,-4.883,7.874,-7.324,40.542,10.64
0.21,0.708,0.681,-2.38,7.751,-1.221,40.817,11.8
0.208,0.6,0.71,6.592,7.202,1.404,40.735,12.171
0.261,0.649,0.708,1.709,-1.16,-2.502,40.945,12.847
0.227,0.647,0.68,28.809,0.366,1.099,41.693,13.398
aX,aY,aZ,gX,gY,gZ,Roll,Pitch
0.21,0.651,0.703,14.404,-2.93,3.357,40.857,13.47
0.233,0.701,0.785,-23.01,4.7,-6.47,41.215,13.392
0.22,0.671,0.655,-5.31,4.456,3.54,42.044,12.896
0.185,0.649,0.682,-10.559,0.366,5.005,42.165,12.29
0.262,0.691,0.588,-7.202,10.986,5.371,43.527,13.198
0.228,0.811,0.582,-4.333,-11.292,-5.31,46.673,13.336
0.223,0.79,0.567,-3.174,-6.775,-2.319,48.747,13.265
0.217,0.755,0.603,6.042,-7.996,-2.197,50.44,13.605
0.228,0.75,0.631,2.686,-17.883,-8.85,50.666,12.891
0.124,0.759,0.607,3.296,-23.743,-1.892,50.31,11.511
0.113,0.728,0.645,9.949,-19.775,1.343,49.252,9.942
0.091,0.722,0.661,5.554,-18.433,-4.822,48.647,8.112
0.061,0.729,0.676,6.226,-18.616,-5.798,48.293,5.676
0.033,0.671,0.703,24.597,-16.541,-9.521,46.523,4.352
-0.036,0.651,0.729,8.362,-22.217,-14.099,44.994,2.183
-0.019,0.63,0.769,7.263,-25.757,-10.864,42.981,0.571
-0.081,0.606,0.758,18.188,-22.339,-9.46,40.836,-1.505
-0.096,0.586,0.765,12.512,-14.16,-11.78,39.231,-3.404
-0.138,0.598,0.796,10.376,-13.916,-10.132,37.932,-4.879
-0.163,0.516,0.821,8.362,-11.841,-3.113,35.989,-7.004
-0.175,0.488,0.807,7.446,-13.855,-5.798,34.041,-8.426
-0.194,0.51,0.816,7.019,-17.273,-10.925,32.564,-9.829
-0.22,0.524,0.809,6.836,-15.625,-9.766,31.403,-11.084
-0.258,0.513,0.782,8.728,-13.489,-7.507,31.467,-12.558
-0.3,0.546,0.803,1.587,-15.747,-12.512,31.954,-14.241
-0.304,0.49,0.809,9.705,-15.259,-9.827,31.514,-15.846
-0.33,0.507,0.751,9.277,-30.029,-14.587,31.446,-17.608
-0.432,0.53,0.741,17.334,-22.949,-10.62,31.455,-20.102
-0.422,0.455,0.711,7.141,-14.954,-10.437,30.548,-22.424
-0.433,0.502,0.721,7.874,-11.108,-7.385,30.832,-24.556
-0.469,0.499,0.722,9.155,-8.728,-2.93,30.402,-26.576
-0.51,0.509,0.732,5.066,-15.503,-1.404,29.888,-27.721
-0.545,0.465,0.71,7.629,-13.123,1.831,29.544,-29.237
-0.55,0.435,0.642,7.446,-15.076,4.639,28.674,-31.437
-0.625,0.425,0.615,7.019,-15.381,5.066,27.642,-34.361
-0.656,0.434,0.59,11.536,-6.47,-0.732,26.738,-37.441
-0.662,0.418,0.607,5.798,-5.859,-0.61,26.061,-39.818
-0.671,0.409,0.603,8.85,-7.812,3.967,25.34,-41.598
-0.694,0.386,0.571,4.578,-5.493,-0.671,24.698,-42.903
-0.706,0.394,0.571,3.662,-7.507,-0.854,24.022,-43.824
-0.747,0.396,0.553,5.859,-7.874,-0.427,23.558,-45.277
-0.733,0.377,0.504,5.188,-4.883,-0.122,23.213,-46.937
-0.749,0.37,0.516,3.296,-0.244,-2.258,22.938,-48.05
-0.736,0.377,0.49,2.686,6.653,0.916,22.838,-49.156
-0.726,0.396,0.485,-3.601,12.085,6.104,23.152,-49.561
-0.729,0.437,0.511,-19.836,13.855,10.742,23.958,-49.044
-0.691,0.361,0.542,-16.541,21.118,19.043,24.037,-48.311
-0.655,0.328,0.579,-19.958,24.841,13.184,23.44,-47.044
-0.622,0.43,0.646,-23.926,25.33,1.221,23.788,-44.349
-0.61,0.543,0.696,-13.916,18.066,6.592,24.984,-40.955
-0.55,0.512,0.644,-8.24,16.418,4.395,27.12,-37.814
-0.529,0.548,0.67,1.099,8.301,5.249,29.999,-34.649
-0.543,0.505,0.62,-0.916,10.681,6.287,31.438,-33.511
-0.513,0.514,0.678,-3.906,16.785,1.404,31.659,-32.589
-0.472,0.52,0.644,-3.296,14.465,8.118,32.129,-31.592
-0.482,0.547,0.695,-8.972,14.893,0.977,32.185,-30.857
-0.44,0.556,0.7,-2.136,13.977,9.033,32.77,-28.882
-0.383,0.578,0.69,-3.906,22.339,4.15,34.045,-26.885
-0.332,0.591,0.692,-0.916,33.875,7.019,35.169,-24.543
-0.304,0.598,0.746,-6.531,29.541,7.446,36.124,-21.754
-0.206,0.552,0.719,-9.705,26.855,4.639,36.806,-18.459
-0.165,0.595,0.778,-3.052,23.56,2.197,36.982,-15.034
-0.102,0.615,0.692,-4.333,20.63,3.845,37.875,-11.656
-0.118,0.704,0.715,-12.329,26.306,0.488,39.78,-8.818
-0.028,0.622,0.741,-1.282,22.766,-0.183,40.656,-6.085
0.071,0.669,0.678,11.536,31.006,7.202,42.679,-2.633
0.094,0.683,0.728,-9.399,36.865,2.563,43.101,0.284
0.178,0.645,0.732,11.108,28.259,5.371,42.118,4.634
0.234,0.651,0.699,6.47,18.494,5.615,42.442,8.458
0.245,0.607,0.677,0.549,10.986,2.258,41.392,11.076
0.216,0.606,0.658,5.127,2.014,14.16,40.853,13.155
0.258,0.613,0.665,7.996,11.536,-2.93,40.882,14.574
0.249,0.68,0.682,-1.709,4.7,0.183,41.315,14.767
0.231,0.635,0.766,4.883,5.066,9.277,40.855,14.255
0.308,0.677,0.68,-1.465,3.418,-0.305,41.148,15.315
0.275,0.599,0.656,17.7,2.075,0.244,41.005,15.612
aX,aY,aZ,gX,gY,gZ,Roll,Pitch
0.264,0.63,0.689,9.46,1.099,0.183,40.35,15.936
0.275,0.654,0.629,-7.385,-4.883,1.221,41.625,16.913
0.296,0.765,0.689,-7.69,3.357,0.671,42.55,16.45
0.257,0.654,0.59,-12.085,2.808,7.507,43.813,16.233
0.276,0.749,0.584,-5.066,11.902,1.282,45.978,16.335
0.271,0.771,0.537,4.089,-5.31,4.395,48.048,16.155
0.263,0.758,0.592,7.751,-8.484,2.991,49.101,15.962
0.243,0.684,0.606,4.761,-12.817,-3.235,49.305,15.624
0.212,0.767,0.623,0.061,-12.878,-6.165,49.371,14.575
0.163,0.713,0.627,4.333,-18.311,-1.77,48.316,13.002
0.189,0.742,0.647,2.747,-14.648,-2.502,47.858,11.874
0.143,0.717,0.667,7.935,-13.55,-4.639,47.857,10.267
0.108,0.685,0.665,4.395,-14.526,-6.042,46.887,8.859
0.115,0.707,0.727,7.935,-16.113,-8.911,45.916,8.043
0.07,0.672,0.741,15.198,-17.7,-8.179,44.458,6.311
0.052,0.636,0.722,14.099,-20.386,-4.028,43.192,5.026
0.001,0.599,0.766,9.888,-22.339,-5.493,41.394,3.459
-0.054,0.601,0.791,11.047,-20.325,-7.568,39.699,1.012
-0.075,0.578,0.796,7.996,-19.47,-8.484,38.131,-1.107
-0.121,0.547,0.79,9.338,-16.541,-12.146,36.411,-3.64
-0.125,0.551,0.806,6.47,-15.015,-15.198,35.4,-5.465
-0.154,0.556,0.775,8.606,-11.169,-7.446,34.887,-6.992
-0.175,0.542,0.826,6.836,-8.057,-5.066,34.069,-8.434
-0.181,0.505,0.839,9.644,-10.62,-6.958,33.081,-9.257
-0.194,0.496,0.833,9.705,-14.404,-13.123,32.078,-10.271
-0.235,0.495,0.809,10.193,-14.954,-12.146,30.934,-11.429
-0.24,0.494,0.825,2.197,-14.221,-8.606,30.236,-12.423
-0.29,0.5,0.823,12.939,-15.625,-13.123,30.069,-14.007
-0.3,0.457,0.801,8.85,-13.245,-12.146,29.579,-15.662
-0.317,0.465,0.809,7.751,-12.756,-10.254,29.008,-16.859
-0.343,0.459,0.818,11.23,-13.916,-8.545,28.365,-18.39
-0.371,0.427,0.789,5.737,-13.672,-5.127,27.439,-19.824
-0.417,0.431,0.77,9.155,-7.996,-9.888,26.986,-21.628
-0.43,0.445,0.767,5.554,-7.202,-5.432,26.662,-23.42
-0.435,0.439,0.764,2.93,-5.188,-1.709,26.432,-24.988
-0.465,0.433,0.77,0.549,-5.188,-1.892,26.332,-26.297
-0.467,0.45,0.762,3.967,-10.376,1.77,26.454,-26.926
-0.499,0.428,0.745,3.906,-11.536,0.793,26.126,-27.998
-0.54,0.409,0.736,16.296,-3.296,-1.404,25.53,-29.594
-0.538,0.406,0.727,6.592,-6.348,-2.197,25.144,-30.877
-0.567,0.4,0.723,10.132,-4.761,-1.587,24.338,-32.545
-0.581,0.384,0.709,1.709,-10.315,-0.671,23.644,-33.946
-0.612,0.403,0.659,-0.977,-8.789,1.404,23.66,-35.367
-0.617,0.406,0.639,0.244,-4.15,-0.183,23.755,-36.935
-0.627,0.396,0.646,1.587,0.366,-1.404,23.801,-38.235
-0.627,0.446,0.623,-3.54,4.15,-1.526,24.803,-39.122
-0.611,0.428,0.597,-3.052,15.381,10.803,25.406,-39.478
-0.615,0.399,0.681,-13.977,16.113,20.203,25.133,-39.167
-0.575,0.409,0.674,-12.573,17.639,17.09,25.407,-38.3
-0.539,0.445,0.694,-16.479,22.278,15.686,25.442,-36.747
-0.524,0.459,0.736,-16.968,13.55,8.728,25.541,-34.57
-0.48,0.463,0.692,-8.972,18.555,11.353,26.859,-32.592
-0.466,0.484,0.714,-6.775,20.63,11.23,28.04,-30.666
-0.418,0.53,0.688,-9.644,22.888,15.869,29.649,-28.83
-0.421,0.492,0.771,-25.33,24.719,8.606,30.261,-27.175
-0.371,0.621,0.747,-15.625,24.597,8.728,32.288,-24.889
-0.322,0.585,0.668,-13.916,31.067,8.911,34.387,-22.847
-0.219,0.677,0.709,-5.798,33.569,2.441,36.696,-19.594
-0.169,0.7,0.693,-10.803,30.823,5.127,40.567,-15.801
-0.069,0.652,0.673,17.7,41.321,13.428,42.509,-11.616
0.008,0.635,0.737,7.69,38.025,8.423,43.083,-6.613
0.036,0.67,0.771,-6.287,34.668,9.521,42.682,-2.836
0.128,0.682,0.727,1.282,33.447,10.315,42.191,1.515
0.195,0.596,0.75,17.029,25.696,14.16,40.641,5.321
0.223,0.597,0.754,4.761,17.578,9.094,39.756,8.42
0.217,0.586,0.743,12.085,-1.282,3.906,38.697,11.184
0.238,0.697,0.729,4.272,12.939,-4.028,38.588,12.711
0.228,0.562,0.707,6.958,1.953,-0.427,38.497,13.355
0.264,0.622,0.724,10.925,-4.517,-1.343,38.926,13.958
0.246,0.565,0.688,18.616,2.502,6.104,39.087,14.574
aX,aY,aZ,gX,gY,gZ,Roll,Pitch
0.24,0.608,0.708,5.981,2.563,2.502,38.23,14.871
0.169,0.694,0.741,-18.799,-2.686,11.353,39.63,13.619
0.252,0.67,0.701,-0.549,1.77,-0.366,40.414,13.4
0.197,0.668,0.66,-1.587,-0.977,14.771,41.939,12.549
0.167,0.701,0.698,-21.79,-7.019,-7.263,43.226,11.355
0.213,0.817,0.607,-7.324,-16.602,-0.671,45.639,11.988
0.166,0.694,0.641,-7.935,-32.41,-4.578,46.729,10.839
0.092,0.747,0.673,7.08,-28.503,-9.033,47.65,9.176
0.023,0.7,0.666,16.052,-28.198,-8.24,48.306,7.167
0,0.677,0.724,18.616,-21.667,-9.155,46.024,4.121
-0.037,0.622,0.797,19.043,-24.78,-13.55,43.82,1.138
-0.08,0.6,0.787,18.433,-23.132,-12.451,41.138,-1.346
-0.127,0.537,0.841,17.7,-22.949,-14.709,37.641,-3.494
-0.172,0.501,0.833,21.79,-27.832,-17.09,34.533,-5.978
-0.246,0.418,0.818,36.255,-25.024,-10.864,31.633,-9.162
-0.283,0.359,0.855,15.259,-21.912,-23.621,27.759,-12.27
-0.314,0.383,0.816,11.902,-24.17,-26.245,25.552,-15.28
-0.365,0.411,0.861,10.071,-24.658,-19.897,23.797,-18.085
-0.388,0.362,0.774,-5.188,-16.357,-25.391,22.978,-20.381
-0.395,0.5,0.81,-3.723,-20.325,-20.447,24.849,-21.804
-0.413,0.488,0.754,6.47,-18.188,-21.667,26.308,-23.167
-0.453,0.533,0.712,10.071,-14.343,-11.78,28.491,-24.722
-0.465,0.456,0.7,15.381,-6.287,-3.479,29.878,-25.799
-0.471,0.449,0.68,8.728,-9.338,-4.944,29.758,-27.676
-0.514,0.459,0.74,10.376,-5.066,-7.08,29.072,-29.174
-0.494,0.457,0.739,11.719,-7.568,-5.92,27.784,-29.827
-0.521,0.419,0.71,11.841,-12.024,-2.991,27.031,-30.613
-0.577,0.396,0.674,7.446,-6.836,0.916,25.977,-32.185
-0.556,0.387,0.688,6.226,-5.066,1.587,25.138,-33.343
-0.551,0.386,0.672,-2.197,-1.099,-2.014,24.298,-34.826
-0.572,0.42,0.61,1.465,5.005,5.371,24.579,-36.186
-0.632,0.407,0.561,-18.005,11.292,26.672,25.025,-37.665
-0.591,0.417,0.733,-16.968,13.428,22.461,25.069,-37.589
-0.611,0.402,0.7,-16.174,15.625,26.672,24.891,-37.997
-0.542,0.446,0.7,-20.813,18.921,20.081,24.952,-36.855
-0.57,0.409,0.692,-4.883,13.062,19.531,24.621,-35.176
-0.572,0.445,0.715,-12.39,21.973,17.456,25.14,-34.957
-0.522,0.388,0.69,-8.484,21.667,15.381,25.349,-34.018
-0.461,0.446,0.754,-1.648,25.391,12.573,25.389,-32.661
-0.421,0.421,0.784,-7.935,28.076,4.456,25.612,-30.166
-0.342,0.445,0.731,-11.597,36.621,15.076,26.308,-27.096
-0.287,0.498,0.859,-2.869,27.71,19.043,27.501,-22.693
-0.266,0.463,0.809,-6.653,19.897,14.709,27.919,-19.735
-0.195,0.505,0.784,3.967,21.973,17.944,29.572,-16.364
-0.175,0.465,0.829,-5.493,29.297,14.038,29.514,-13.629
-0.077,0.538,0.837,-9.949,38.208,11.963,30.558,-10.615
0.011,0.546,0.811,-18.86,30.762,4.883,31.963,-6.464
0.064,0.631,0.804,-11.597,16.602,9.094,33.561,-2.578
0.073,0.662,0.746,-3.784,18.738,4.883,36.619,1.016
0.068,0.669,0.669,-13.489,26.55,-0.916,39.546,3.142
0.225,0.613,0.715,-1.587,25.024,-2.991,40.972,6.29
0.191,0.654,0.672,4.7,3.723,-1.038,42.285,8.292
0.31,0.744,0.707,5.859,7.935,0.854,42.985,11.657
0.25,0.613,0.702,6.287,7.019,-4.883,41.535,14.289
0.245,0.656,0.663,7.324,-0.122,8.484,42.407,14.592
aX,aY,aZ,gX,gY,gZ,Roll,Pitch
0.202,0.629,0.774,11.169,-0.244,1.16,41.182,14.537
0.253,0.682,0.702,-5.92,-6.348,0.977,40.74,13.9
0.239,0.786,0.622,-3.906,8.118,4.395,43.363,13.535
0.234,0.683,0.679,19.043,9.521,3.662,43.53,13.287
0.217,0.638,0.683,-36.011,-4.272,-6.409,44.422,13.69
0.27,0.707,0.714,-7.324,-11.353,-5.005,44.496,13.841
0.213,0.645,0.626,-0.671,-23.315,-5.127,43.065,13.804
0.167,0.713,0.699,-1.953,-29.846,-9.094,43.408,12.726
0.119,0.741,0.644,6.165,-27.405,-4.15,45.148,11.188
0.06,0.714,0.674,11.719,-22.949,-3.418,46.152,8.219
0.044,0.687,0.704,7.69,-23.56,-6.836,46.082,5.639
-0.005,0.659,0.748,16.296,-19.897,-8.24,45.222,3.166
-0.058,0.586,0.806,29.236,-17.09,-14.526,42.062,0.599
-0.103,0.532,0.763,11.536,-15.259,-15.015,39.188,-1.777
-0.098,0.501,0.846,16.785,-13.184,-8.362,35.674,-3.872
-0.111,0.441,0.847,6.287,-10.864,-7.08,32.119,-5.477
-0.156,0.473,0.892,-3.784,-17.151,-12.024,29.948,-6.892
-0.162,0.477,0.839,10.071,-13.306,-10.498,28.638,-7.68
-0.215,0.451,0.86,5.249,-15.442,-8.667,27.776,-9.378
-0.225,0.483,0.839,10.681,-14.404,-7.812,28.212,-10.97
-0.264,0.437,0.843,12.024,-11.108,-7.751,27.9,-12.68
-0.291,0.414,0.848,6.897,-16.907,-7.324,26.817,-14.574
-0.325,0.417,0.875,9.094,-18.738,-7.08,26.079,-16.118
-0.392,0.401,0.832,11.658,-19.348,-9.644,24.71,-18.589
-0.459,0.345,0.781,23.926,-20.874,-2.747,23.413,-21.69
-0.488,0.339,0.769,10.01,-11.841,-17.334,22.329,-24.899
-0.51,0.355,0.76,9.644,-10.315,-9.705,21.556,-28.146
-0.548,0.334,0.769,3.113,-3.601,-2.319,20.503,-30.736
-0.538,0.351,0.794,3.784,-8.24,-2.38,20.304,-31.606
-0.56,0.342,0.763,5.981,-4.517,-2.502,20.167,-32.511
-0.55,0.351,0.766,10.437,-9.705,0,19.971,-32.965
-0.614,0.321,0.727,3.723,-12.695,-0.671,19.768,-34.095
-0.629,0.292,0.686,1.465,-8.911,-1.648,19.124,-36.169
-0.67,0.329,0.674,4.578,-9.033,-1.465,18.937,-38.177
-0.662,0.325,0.662,-4.822,-10.437,-3.296,18.589,-40.386
-0.707,0.288,0.611,-1.221,3.357,-5.432,18.212,-42.539
-0.675,0.384,0.639,4.883,5.981,-0.183,19.468,-43.046
-0.677,0.338,0.602,4.272,9.399,12.573,19.803,-43.721
-0.619,0.313,0.677,-13.977,15.015,7.935,19.75,-43.191
-0.6,0.302,0.715,-0.488,17.151,12.756,19.968,-41.058
-0.596,0.324,0.701,-17.395,19.836,15.442,19.189,-39.899
-0.526,0.389,0.752,-21.729,19.104,21.545,19.829,-36.722
-0.536,0.391,0.754,-18.066,20.63,20.569,20.853,-34.855
-0.477,0.362,0.807,-10.986,19.592,11.047,21.657,-32.486
-0.464,0.396,0.804,-6.897,11.108,9.521,22.55,-29.941
-0.446,0.405,0.775,-5.615,11.292,8.301,22.885,-28.751
-0.417,0.444,0.755,-9.094,13.794,11.841,23.921,-27.079
-0.386,0.441,0.808,-10.986,15.076,12.512,25.22,-25.663
-0.384,0.429,0.766,-8.362,22.278,12.207,26.104,-24.717
-0.322,0.503,0.794,-9.827,24.963,14.404,27.654,-22.662
-0.276,0.505,0.756,-13.123,33.875,12.878,28.847,-20.558
-0.181,0.535,0.798,-9.338,30.151,6.47,30.685,-17.499
-0.129,0.513,0.811,-5.615,23.56,4.7,32.029,-13.536
-0.081,0.611,0.775,-8.911,22.339,2.686,33.989,-9.912
-0.052,0.607,0.735,-10.437,19.714,5.554,35.739,-6.551
0.034,0.631,0.722,-5.432,24.719,2.686,37.751,-3.382
0.08,0.656,0.748,-0.854,20.508,3.296,40.063,-0.269
0.139,0.663,0.677,8.362,30.029,7.874,41.523,2.994
0.191,0.632,0.836,14.648,27.893,7.202,40.575,6.436
0.242,0.594,0.695,12.146,12.695,6.714,40.064,9.496
0.241,0.58,0.758,5.249,-0.366,-6.775,38.756,11.897
0.258,0.652,0.686,-5.127,13.184,2.014,38.246,13.569
0.354,0.648,0.741,5.188,4.883,8.057,38.76,16.069
0.254,0.593,0.696,9.399,6.47,-1.77,38.697,16.24
0.276,0.598,0.701,32.043,2.38,5.859,39.277,16.858
0.266,0.632,0.823,-3.967,4.089,-2.197,37.886,16.595
0.277,0.59,0.678,-6.042,0.549,-1.404,37.978,15.883
0.296,0.583,0.744,5.554,0.366,-0.305,37.337,16.343
aX,aY,aZ,gX,gY,gZ,Roll,Pitch
0.27,0.578,0.698,18.494,-4.211,-1.587,37.154,16.318
0.229,0.63,0.655,6.104,-7.019,4.7,38.674,16.329
0.286,0.654,0.7,-3.845,-0.122,4.211,39.202,16.212
0.267,0.648,0.65,-3.54,4.333,5.31,40.882,15.908
0.349,0.58,0.757,-31.372,-6.714,-8.85,40.088,16.848
0.241,0.764,0.592,-2.747,-21.179,-1.343,42.073,16.826
0.206,0.718,0.632,-0.549,-20.508,-7.568,43.679,15.715
0.168,0.735,0.666,11.597,-28.809,-6.836,44.798,14.052
0.071,0.679,0.665,14.282,-19.653,-6.409,47.591,10.073
0.053,0.664,0.709,7.69,-17.944,-6.042,45.822,7.336
0.057,0.661,0.743,9.705,-22.827,-6.836,44.33,5.1
-0.02,0.607,0.781,10.62,-20.63,-10.071,41.979,2.353
-0.058,0.613,0.761,10.376,-20.569,-11.719,40.374,0.461
-0.091,0.551,0.762,8.606,-12.939,-12.39,38.574,-1.654
-0.081,0.593,0.821,4.822,-12.146,-8.972,37.024,-3.649
-0.133,0.541,0.818,12.085,-20.813,-5.432,35.828,-5.306
-0.171,0.513,0.801,10.864,-17.822,-6.714,34.164,-6.994
-0.174,0.575,0.801,7.202,-14.648,-11.108,34.04,-8.092
-0.266,0.53,0.797,8.362,-13.489,-2.747,33.17,-10.873
-0.282,0.482,0.806,7.69,-10.742,-2.38,32.255,-13.115
-0.284,0.487,0.823,7.385,-9.399,-11.658,31.527,-14.685
-0.31,0.511,0.82,5.92,-17.7,-10.132,30.284,-16.646
-0.316,0.491,0.791,12.268,-16.479,-11.292,29.725,-17.43
-0.369,0.462,0.766,7.874,-19.47,-13.611,29.513,-18.823
-0.408,0.555,0.753,2.808,-24.231,-9.338,30.491,-20.621
-0.461,0.532,0.706,7.629,-21.118,-2.38,31.03,-23.102
-0.523,0.498,0.635,-5.249,-17.639,-0.671,31.367,-26.598
-0.526,0.534,0.645,-11.108,-20.325,-3.174,32.373,-28.982
-0.588,0.513,0.567,6.47,-15.137,-3.906,32.153,-32.522
-0.672,0.527,0.477,-0.671,-17.761,1.709,32.305,-36.566
-0.679,0.518,0.519,7.385,-6.104,2.38,32.297,-39.025
-0.689,0.519,0.511,-3.296,-13.855,6.165,31.815,-41.84
-0.692,0.57,0.403,-22.156,-7.996,1.343,32.624,-43.649
-0.742,0.564,0.372,-3.418,-11.78,2.563,33.083,-44.779
-0.758,0.509,0.299,8.118,-4.15,5.432,33.325,-47.057
-0.766,0.544,0.32,2.991,3.662,-2.197,33.768,-48.761
-0.748,0.547,0.353,8.911,11.78,1.343,33.246,-49.801
-0.74,0.498,0.402,4.089,18.066,4.944,32.35,-50.229
-0.712,0.529,0.438,-5.127,16.968,2.808,32.445,-48.748
-0.673,0.53,0.446,-4.7,22.644,6.287,32.448,-47.145
-0.641,0.428,0.586,11.353,26.062,9.888,30.719,-45.408
-0.595,0.527,0.616,-15.564,14.832,8.057,31.016,-42.119
-0.591,0.503,0.558,-10.62,24.597,5.371,30.811,-40.092
-0.53,0.553,0.611,-7.69,38.452,6.409,31.032,-37.162
-0.462,0.614,0.685,-15.015,32.959,14.465,33.714,-33.371
-0.393,0.544,0.654,-8.118,36.377,10.437,34.744,-30.56
-0.332,0.651,0.69,-8.728,35.339,2.625,36.88,-25.853
-0.25,0.674,0.709,-0.183,39.49,7.69,38.776,-21.235
-0.151,0.679,0.732,-13.733,42.114,4.883,40.319,-16.596
-0.055,0.685,0.729,-6.287,34.912,7.324,42.204,-11.345
-0.035,0.704,0.723,-1.221,31.738,7.568,43.064,-7.016
0.055,0.692,0.695,-27.222,38.391,-2.319,43.735,-2.667
0.143,0.783,0.661,-0.305,29.663,3.723,45.55,1.538
0.196,0.773,0.584,-6.714,27.039,4.883,47.689,5.156
0.243,0.756,0.533,-0.305,29.602,5.554,49.637,9.297
0.295,0.787,0.569,13.977,28.87,0.549,51.061,12.704
0.283,0.794,0.579,7.69,12.573,3.723,51.408,14.8
0.253,0.68,0.503,-13.306,-3.479,3.418,51.117,16.084
0.311,0.789,0.566,4.578,15.991,-2.441,50.739,16.848
0.277,0.591,0.522,2.136,0.793,-2.014,49.433,17.413
0.34,0.704,0.517,7.507,2.075,7.812,48.846,18.771
0.323,0.666,0.525,5.676,-2.075,1.282,48.081,19.778
aX,aY,aZ,gX,gY,gZ,Roll,Pitch
0.322,0.711,0.578,14.404,0.671,0.366,47.086,20.212
0.314,0.793,0.663,-35.706,-3.967,-1.831,47.589,19.47
0.303,0.854,0.521,-8.85,-0.671,-1.465,49.192,18.392
0.259,0.78,0.501,9.094,8.728,12.878,50.789,17.187
0.346,0.823,0.518,-8.24,11.841,-3.174,52.215,17.278
0.297,0.737,0.386,-4.639,13.55,-3.174,54.573,17.898
0.355,0.792,0.505,-2.808,-7.324,0.61,53.873,18.91
0.373,0.781,0.592,-5.127,-34.302,-2.502,52.256,20.249
0.264,0.742,0.495,-2.319,-45.593,-8.728,52.285,19.521
0.196,0.777,0.515,-10.864,-35.4,-15.808,51.98,17.615
0.193,0.794,0.546,11.475,-41.809,-10.742,52.443,15.233
0.126,0.758,0.636,2.991,-33.142,-11.108,52.874,11.654
0.044,0.738,0.648,9.644,-39.063,-7.812,51.843,8.225
-0.032,0.739,0.658,18.127,-34.485,-5.066,50.357,4.812
-0.114,0.655,0.633,6.653,-19.348,-6.653,48.301,0.341
-0.122,0.665,0.694,2.808,-8.789,-3.845,46.628,-3.348
-0.126,0.664,0.76,8.057,-7.935,-2.808,44.485,-5.823
-0.152,0.633,0.742,9.888,-11.597,-4.395,42.316,-7.593
-0.174,0.616,0.7,7.812,-11.719,-3.479,41.123,-8.418
-0.194,0.635,0.762,6.165,-14.526,-7.629,40.031,-9.379
-0.243,0.66,0.719,3.296,-16.724,-2.563,40.107,-11.134
-0.267,0.612,0.702,7.141,-12.817,-3.113,39.946,-12.898
-0.297,0.597,0.729,13,-12.146,-3.845,39.145,-14.598
-0.301,0.591,0.754,10.925,-14.526,-5.371,38.381,-16.224
-0.349,0.54,0.719,11.719,-16.052,-3.906,36.636,-18.023
-0.399,0.531,0.713,9.949,-14.587,-2.747,35.125,-20.051
-0.423,0.587,0.687,10.132,-14.465,-2.38,34.86,-21.961
-0.465,0.486,0.73,14.221,-13.611,-3.662,33.128,-24.645
-0.489,0.491,0.679,8.057,-12.817,-2.441,32.229,-26.88
-0.513,0.519,0.651,8.24,-8.606,-2.197,32.002,-28.734
-0.533,0.499,0.645,5.676,-8.484,1.404,30.676,-30.759
-0.541,0.494,0.681,5.737,-7.629,-1.404,30.723,-31.964
-0.575,0.451,0.631,7.324,-10.01,-0.671,30.093,-33.511
-0.597,0.485,0.548,3.296,-12.573,-4.761,29.828,-35.39
-0.621,0.489,0.634,0.916,-7.751,-1.648,29.314,-36.567
-0.626,0.478,0.57,13.062,-7.751,4.517,29.256,-38.427
-0.662,0.481,0.58,6.348,-4.395,3.235,29.445,-39.614
-0.66,0.446,0.58,5.859,-6.348,0.732,28.475,-40.311
-0.688,0.413,0.535,6.592,-0.488,-2.563,27.617,-42.227
-0.709,0.488,0.504,3.174,4.944,5.005,27.596,-43.56
-0.68,0.388,0.54,-3.845,17.822,23.499,26.458,-44.658
-0.635,0.415,0.678,-13.123,20.752,2.808,25.772,-43.798
-0.608,0.457,0.607,-10.681,18.799,12.207,26.436,-42.113
-0.568,0.437,0.654,-9.521,26.184,3.54,25.769,-39.669
-0.516,0.51,0.696,-13.123,30.029,3.296,27.352,-36.018
-0.464,0.507,0.721,-15.93,29.968,13.611,29.069,-33.242
-0.408,0.522,0.735,-18.005,25.818,9.399,30.026,-29.673
-0.376,0.572,0.734,-12.573,18.616,9.766,31.972,-26.253
-0.323,0.657,0.693,-12.146,17.822,14.709,34.52,-23.221
-0.308,0.622,0.675,-5.31,23.01,18.25,36.815,-20.947
-0.295,0.585,0.726,-1.709,31.067,13.611,38.039,-19.243
-0.23,0.617,0.743,-11.047,31.433,12.634,39.003,-17.064
-0.197,0.617,0.727,-6.897,28.931,11.597,38.671,-15.289
-0.135,0.655,0.738,3.784,27.161,1.282,38.985,-12.577
-0.108,0.648,0.74,4.028,20.874,5.432,40.004,-9.768
-0.05,0.649,0.701,-2.808,27.527,7.507,41.082,-7.194
0.015,0.67,0.711,-9.949,20.752,0.793,42.093,-4.067
0.072,0.707,0.626,2.808,17.822,2.258,43.903,-1.056
0.086,0.698,0.684,-2.625,19.409,-3.54,45.002,1.823
0.136,0.745,0.603,3.052,17.944,1.038,46.881,4.585
0.202,0.736,0.646,-13.55,19.897,-1.343,47.916,7.32
0.196,0.755,0.51,11.963,24.231,4.517,49.34,9.219
0.293,0.483,0.7,26.917,3.845,4.822,46.336,12.716
0.245,0.801,0.599,-9.277,7.202,-6.958,46.546,14.182
0.291,0.644,0.633,19.836,3.845,7.202,45.362,15.781
0.292,0.692,0.645,-1.343,2.93,-3.601,42.99,16.958
aX,aY,aZ,gX,gY,gZ,Roll,Pitch
0.255,0.614,0.658,10.132,2.075,-1.038,44.937,16.134
0.261,0.686,0.602,3.113,-9.949,8.057,43.624,16.7
0.291,0.725,0.623,-7.202,2.869,3.54,44.583,16.488
0.341,0.668,0.651,-3.662,3.296,6.592,44.072,17.248
0.245,0.749,0.564,8.789,-8.362,4.517,46.413,16.947
0.27,0.756,0.588,1.892,0.793,-1.77,47.21,16.893
0.287,0.703,0.672,1.038,-15.808,-4.883,46.533,16.773
0.217,0.768,0.565,1.404,-31.006,-8.118,48.881,14.962
0.141,0.752,0.574,-1.526,-25.146,-2.319,49.235,13.463
0.14,0.766,0.649,7.996,-20.203,-2.93,49.162,11.47
0.096,0.727,0.624,1.709,-23.254,-3.967,50.484,8.751
0.046,0.727,0.658,13.611,-18.25,-4.15,49.471,6.208
0.018,0.745,0.67,9.949,-24.292,-2.686,48.56,4.346
-0.041,0.699,0.687,13.367,-18.799,-3.54,47.656,1.736
-0.076,0.686,0.755,18.372,-18.616,-5.249,45.891,-0.763
-0.11,0.615,0.713,10.864,-21.118,-5.981,44.099,-3.036
-0.14,0.584,0.724,10.071,-17.334,-9.766,41.673,-5.407
-0.186,0.58,0.785,14.709,-18.127,-12.024,39.215,-7.53
-0.168,0.593,0.779,10.681,-18.066,-15.015,37.773,-8.956
-0.242,0.527,0.786,13.977,-19.653,-12.573,35.859,-10.865
-0.272,0.5,0.776,15.747,-19.653,-10.01,34.149,-12.784
-0.28,0.509,0.787,13.733,-16.724,-10.559,33.045,-14.266
-0.329,0.489,0.845,10.681,-19.775,-10.437,30.879,-16.54
-0.398,0.435,0.78,17.273,-21.484,-13,29.366,-18.938
-0.435,0.436,0.752,9.705,-13.306,-13.062,28.256,-21.429
-0.456,0.41,0.751,7.202,-10.254,-7.141,26.684,-24.239
-0.465,0.438,0.798,2.136,-13.123,-2.258,25.872,-26.435
-0.49,0.406,0.758,6.409,-5.31,-9.155,25.32,-27.843
-0.53,0.411,0.745,10.498,-19.836,-1.831,24.721,-29.175
-0.594,0.372,0.727,15.32,-12.878,-0.061,23.891,-31.161
-0.574,0.354,0.665,5.188,-14.832,-2.258,23.027,-33.703
-0.635,0.321,0.677,6.531,-12.024,-0.916,21.734,-36.351
-0.691,0.354,0.633,3.113,-7.935,-3.418,20.854,-39.327
-0.676,0.363,0.594,2.991,-5.493,-2.197,20.939,-41.402
-0.702,0.377,0.581,-0.854,1.038,-2.258,21.074,-43.398
-0.68,0.377,0.611,3.54,2.197,1.587,21.885,-44.163
-0.688,0.396,0.59,0.854,2.869,4.7,22.616,-44.275
-0.714,0.331,0.589,-6.287,12.878,9.888,22.044,-44.884
-0.636,0.381,0.637,-9.094,14.282,12.207,22.176,-43.691
-0.639,0.324,0.556,-12.024,12.39,34.973,21.825,-44.019
-0.676,0.366,0.668,-33.264,24.963,20.874,21.18,-43.359
-0.581,0.397,0.703,-16.785,22.766,23.132,22.174,-40.596
-0.56,0.422,0.638,-28.442,14.771,14.648,23.02,-39.531
-0.544,0.553,0.723,-29.053,27.649,3.479,25.701,-36.098
-0.513,0.517,0.682,-13.977,21.179,7.812,28.226,-33.407
-0.483,0.507,0.662,-9.827,25.757,11.536,30.265,-31.981
-0.369,0.535,0.686,-13.611,35.095,5.127,32.224,-28.814
-0.318,0.594,0.74,-17.639,35.4,1.038,33.585,-25.623
-0.209,0.591,0.775,5.615,46.997,-1.282,35.018,-20.807
-0.097,0.574,0.792,0.854,29.663,2.38,36.022,-14.744
-0.042,0.626,0.806,3.174,23.376,2.869,36.833,-9.637
0.019,0.595,0.77,2.625,20.142,3.723,37.051,-4.753
0.067,0.613,0.767,0.854,19.958,0.671,37.517,-0.761
0.115,0.62,0.757,0.916,23.193,-8.179,38.33,2.302
0.129,0.593,0.731,1.526,18.677,4.761,38.51,4.866
0.216,0.588,0.719,-19.47,17.456,4.089,38.633,7.832
0.2,0.666,0.724,9.216,29.968,11.108,39.386,9.787
0.301,0.619,0.682,7.568,11.047,-7.263,39.61,12.657
0.333,0.7,0.688,-1.343,9.216,-2.441,40.575,15.416
0.311,0.588,0.67,8.911,7.263,0.366,40.685,16.873
0.367,0.626,0.692,5.432,4.517,-4.089,39.88,19.407
aX,aY,aZ,gX,gY,gZ,Roll,Pitch
0.347,0.589,0.727,8.301,0.732,-2.869,38.99,19.963
0.362,0.658,0.816,-29.175,3.479,0.671,37.397,20.019
0.357,0.665,0.635,-2.625,1.526,2.93,38.348,20.512
0.295,0.657,0.683,-2.563,-3.784,7.568,39.032,19.482
0.337,0.586,0.827,56.58,12.085,9.155,38.249,19.015
0.392,0.663,0.675,-25.208,-1.038,-2.258,39.309,19.887
0.363,0.726,0.711,-4.883,-30.334,-1.892,39.345,19.508
0.26,0.684,0.616,-11.902,-36.743,-11.78,40.313,19.202
0.202,0.758,0.628,-5.127,-23.499,-11.475,44.348,17.482
0.122,0.749,0.739,14.099,-19.836,-2.93,45.619,13.415
0.144,0.666,0.71,-4.639,-20.02,-7.751,45.683,10.511
0.111,0.685,0.712,3.113,-19.714,-8.423,45.087,8.257
0.08,0.651,0.733,5.981,-17.09,-5.066,43.189,6.537
-0.009,0.655,0.759,-0.793,-30.029,-5.554,42.18,4.736
-0.044,0.682,0.725,3.174,-26.428,-7.019,42.357,2.003
-0.1,0.633,0.762,10.315,-18.005,-11.841,41.338,-1.052
-0.066,0.574,0.751,8.362,-21.423,-13.611,40.252,-3.184
-0.137,0.653,0.767,1.282,-26.367,-17.944,40.035,-5.042
-0.173,0.613,0.729,9.46,-26.306,-15.625,39.055,-6.976
-0.243,0.61,0.772,12.817,-21.301,-13.855,38.473,-9.045
-0.244,0.605,0.731,11.108,-23.743,-10.437,38.637,-11.565
-0.289,0.583,0.741,5.432,-20.386,-7.324,37.69,-13.909
-0.36,0.544,0.746,11.108,-30.334,-3.662,36.219,-16.63
-0.406,0.571,0.651,10.376,-21.79,-5.249,36.19,-19.432
-0.474,0.517,0.655,14.343,-13.123,2.625,34.827,-23.208
-0.491,0.499,0.671,3.601,-10.681,-0.366,33.437,-26.597
-0.512,0.54,0.67,4.333,-14.221,-1.648,33.211,-29.022
-0.607,0.483,0.642,9.277,-17.883,-6.409,31.232,-32.011
-0.559,0.502,0.605,5.493,-15.381,1.526,30.944,-33.428
-0.612,0.525,0.602,0.305,-15.259,-0.366,31.065,-35.179
-0.621,0.445,0.534,13.245,-9.338,0.488,30.044,-37.877
-0.692,0.468,0.533,9.277,-5.676,-0.732,29.954,-39.717
-0.66,0.443,0.539,4.395,-5.859,-1.16,28.956,-41.704
-0.68,0.472,0.547,4.272,-2.808,-1.648,28.143,-43.205
-0.708,0.464,0.534,5.493,-6.165,0.183,27.915,-44.018
-0.709,0.449,0.496,2.319,-2.747,0.183,27.723,-44.614
-0.703,0.419,0.452,4.15,3.784,0.916,27.539,-45.898
-0.617,0.387,0.57,5.31,28.503,4.7,26.67,-45.654
-0.682,0.512,0.551,-6.958,15.442,2.502,27.391,-44.909
-0.638,0.517,0.523,-4.944,19.897,10.864,28.563,-43.474
-0.609,0.491,0.616,-15.93,25.33,12.634,29.252,-40.738
-0.525,0.497,0.655,-10.132,17.09,12.756,30.722,-38.425
-0.537,0.475,0.668,-12.939,23.743,12.695,30.395,-36.151
-0.458,0.468,0.722,-0.61,32.227,13.489,29.543,-32.906
-0.457,0.548,0.763,-4.456,22.949,16.724,30.076,-29.875
-0.391,0.459,0.772,4.089,22.461,19.775,29.438,-27.666
-0.384,0.458,0.818,-9.155,12.878,7.568,28.855,-24.954
-0.351,0.455,0.765,-6.47,16.479,6.653,28.772,-23.387
-0.303,0.519,0.813,-8.362,18.677,5.859,28.548,-21.179
-0.337,0.598,0.77,4.883,21.606,21.362,30.45,-20.094
-0.209,0.407,0.827,-1.16,22.095,18.616,30.24,-17.8
-0.188,0.503,0.845,-2.747,23.804,4.639,30.676,-15.15
-0.157,0.493,0.838,5.127,28.625,2.808,30.481,-13.065
-0.057,0.458,0.903,-0.244,26.306,1.77,28.224,-8.94
0.026,0.487,0.87,-0.122,19.043,2.197,29.182,-5.426
0.035,0.497,0.864,-2.441,15.015,1.892,29.096,-2.2
0.114,0.474,0.811,8.24,22.217,8.85,29.054,1.707
0.154,0.58,0.881,-40.161,17.09,1.16,30.642,4.713
0.226,0.53,0.738,-0.366,21.423,-2.319,31.963,7.734
0.246,0.627,0.757,2.38,19.531,4.822,34.058,10.802
0.282,0.621,0.755,-13.489,8.179,3.418,35.89,13.053
0.29,0.611,0.649,-9.277,11.047,-0.488,37.791,15.548
0.338,0.772,0.594,-18.433,22.766,-1.465,41.366,16.89
0.385,0.749,0.6,13.794,22.278,2.991,43.483,18.887
0.348,0.628,0.559,0.793,0.549,-0.671,44.994,20.392
0.388,0.725,0.622,3.784,10.498,-1.16,45.884,21.359
0.362,0.569,0.575,-3.662,3.357,1.099,43.818,22.596
0.396,0.675,0.597,9.644,0.305,3.357,42.977,23.086
0.418,0.658,0.59,30.518,-2.38,4.7,42.649,23.803
aX,aY,aZ,gX,gY,gZ,Roll,Pitch
0.415,0.607,0.623,13.184,0.977,-1.404,41.186,24.692
0.389,0.733,0.593,-6.592,-9.155,2.563,42.696,24.244
0.396,0.699,0.597,1.587,5.676,8.911,42.954,24.136
0.375,0.619,0.554,-0.488,4.211,12.695,43.07,23.865
0.327,0.845,0.524,6.348,2.136,5.676,46.874,22.007
0.396,0.828,0.522,19.287,-2.808,-2.625,48.38,21.918
0.363,0.721,0.553,-3.784,-24.17,-3.54,49.176,21.523
0.365,0.721,0.56,-4.517,-30.334,-9.644,50.133,20.944
0.299,0.76,0.579,-2.563,-30.579,-7.69,49.015,20.768
0.251,0.749,0.605,-4.578,-29.053,-11.292,48.306,18.869
0.225,0.735,0.641,10.742,-24.597,-12.207,48.293,16.673
0.202,0.722,0.622,5.981,-31.067,-5.554,48.382,14.26
0.114,0.694,0.653,1.038,-25.879,-3.296,47.666,11.636
0.052,0.732,0.763,17.212,-20.752,-12.329,46.415,8.57
0.062,0.684,0.703,8.606,-30.701,-8.423,45.578,6.224
-0.023,0.616,0.719,17.029,-17.578,-1.038,43.77,2.981
-0.06,0.626,0.785,4.089,-12.085,-4.944,41.816,0.453
-0.058,0.607,0.769,2.197,-12.695,-3.784,40.389,-1.161
-0.119,0.611,0.784,-4.089,-25.635,-1.953,38.725,-3.782
-0.18,0.612,0.73,9.644,-13,-5.859,38.431,-6.047
-0.179,0.582,0.706,-0.732,-16.479,-4.639,38.464,-7.931
-0.232,0.614,0.734,6.775,-7.568,-6.592,38.53,-10.514
-0.228,0.612,0.74,2.625,-7.751,-2.319,38.67,-12.198
-0.24,0.615,0.763,1.343,-10.437,-1.526,38.257,-12.974
-0.243,0.62,0.744,10.925,-12.512,-2.197,38.203,-13.704
-0.297,0.542,0.725,11.353,-5.859,-3.723,37.278,-14.809
-0.303,0.55,0.774,7.263,-11.108,-5.493,36.062,-15.908
-0.327,0.547,0.738,9.644,-12.146,-5.615,35.193,-17.376
-0.341,0.546,0.746,7.446,-4.089,-5.981,33.972,-18.937
-0.371,0.492,0.774,9.521,-14.954,-8.301,32.762,-19.902
-0.391,0.526,0.708,7.324,-16.357,-8.972,32.66,-21.438
-0.441,0.546,0.692,5.188,-23.499,-4.028,32.567,-23.198
-0.473,0.55,0.671,1.648,-23.376,1.77,32.625,-25.3
-0.559,0.51,0.617,7.629,-17.639,4.639,33.084,-28.514
-0.587,0.515,0.536,-8.728,-12.634,-6.287,33.096,-32.051
-0.578,0.571,0.59,3.113,-11.597,5.859,33.309,-34.22
-0.63,0.532,0.52,8.972,-4.639,-0.366,33.084,-37.15
-0.677,0.498,0.471,0.244,1.953,1.282,33.032,-39.535
-0.609,0.526,0.526,1.526,9.521,1.587,33.084,-39.784
-0.611,0.465,0.542,-10.498,25.024,3.052,31.802,-41.202
-0.559,0.58,0.619,-8.667,16.479,0.061,32.338,-39.386
-0.524,0.594,0.587,-5.859,14.832,12.878,33.792,-36.252
-0.499,0.604,0.679,-10.62,12.207,4.639,34.46,-33.555
-0.487,0.598,0.632,-2.441,8.24,7.385,36.117,-30.864
-0.507,0.583,0.577,5.859,10.864,15.32,36.694,-30.44
-0.536,0.532,0.592,11.353,20.569,20.996,35.875,-30.876
-0.459,0.471,0.693,-11.597,34.729,13.672,34.398,-30.975
-0.388,0.605,0.762,-18.799,26.489,14.099,34.117,-28.949
-0.346,0.543,0.698,-16.235,25.94,11.597,33.545,-26.379
-0.31,0.609,0.719,-16.907,21.301,10.62,34.503,-22.466
-0.246,0.629,0.662,4.15,18.433,10.559,37.4,-19.168
-0.278,0.619,0.689,-1.343,28.992,5.92,38.58,-17.849
-0.193,0.651,0.758,3.479,33.569,8.423,39.824,-15.192
-0.125,0.624,0.772,2.563,32.593,9.216,40.051,-12.39
-0.063,0.628,0.784,0.305,22.583,7.263,39.365,-9.527
0.013,0.482,0.694,30.334,32.349,6.592,38.197,-5.458
0.06,0.644,0.802,-13.123,22.278,0.488,37.9,-1.683
0.121,0.675,0.729,-10.254,26.855,5.249,38.886,1.956
0.167,0.661,0.71,2.319,27.893,8.179,39.779,5.399
0.216,0.646,0.74,-7.08,7.202,8.24,40.878,8.089
0.249,0.683,0.617,1.099,18.311,3.723,42.629,11.031
0.312,0.727,0.704,15.198,35.095,3.723,42.867,13.678
0.298,0.659,0.716,5.859,11.841,11.292,42.357,15.481
0.326,0.629,0.643,2.441,-0.732,-1.709,42.637,17.319
0.391,0.738,0.656,10.681,13.794,-4.883,42.289,18.939
0.332,0.564,0.625,1.221,-2.319,-6.348,41.146,20.007
0.345,0.698,0.631,5.005,2.747,-1.709,42.098,20.813
0.337,0.578,0.66,3.784,0.854,0.671,41.344,21.09
aX,aY,aZ,gX,gY,gZ,Roll,Pitch
0.315,0.61,0.632,-6.165,6.592,4.883,40.468,20.598
0.347,0.62,0.646,-1.648,-10.132,8.423,40.849,20.537
0.308,0.717,0.599,-1.953,-1.343,2.014,41.504,20.063
0.321,0.714,0.619,-6.775,6.958,15.259,43.433,19.496
0.304,0.715,0.595,-0.427,2.991,0.732,44.916,19.088
0.288,0.855,0.516,-9.705,-16.907,-1.831,48.758,17.82
0.215,0.722,0.573,0.549,-35.889,-1.648,49.524,16.59
0.159,0.745,0.548,8.179,-27.71,-4.333,51.311,14.372
0.102,0.77,0.599,4.15,-20.813,-8.057,52.619,11.317
0.101,0.747,0.615,6.409,-16.541,-10.803,51.139,8.655
0.113,0.769,0.681,9.155,-18.921,-15.137,50.615,6.953
0.093,0.754,0.634,4.883,-23.987,-2.808,49.882,5.897
0.034,0.695,0.711,10.071,-16.846,-6.165,48.08,4.91
-0.004,0.692,0.753,9.277,-24.78,-7.568,46.227,3.362
-0.047,0.622,0.715,27.527,-18.188,-6.165,44.49,1.103
-0.078,0.579,0.746,12.451,-15.076,-3.967,41.507,-1.381
-0.141,0.582,0.759,1.16,-19.165,-13.672,39.677,-3.988
-0.16,0.599,0.755,11.23,-19.287,-4.944,38.405,-6.376
-0.225,0.589,0.764,5.188,-19.226,-0.732,37.298,-8.954
-0.241,0.575,0.756,10.925,-22.583,-3.296,36.849,-11.312
-0.315,0.543,0.719,14.893,-15.076,-9.094,36.317,-13.988
-0.336,0.515,0.721,15.503,-7.996,-8.118,35.103,-16.796
-0.348,0.532,0.775,4.822,-13.184,-5.92,33.932,-18.652
-0.365,0.54,0.776,5.493,-15.869,-6.653,32.947,-20.383
-0.411,0.513,0.716,8.118,-18.25,-3.784,32.272,-21.785
-0.431,0.481,0.686,12.329,-12.329,-2.136,31.759,-23.339
-0.49,0.487,0.728,9.338,-16.296,-4.395,30.998,-25.603
-0.499,0.522,0.694,5.859,-14.526,-5.188,30.773,-27.858
-0.569,0.493,0.57,0.427,-39.734,2.747,30.74,-30.828
-0.662,0.51,0.527,8.789,-25.696,3.662,30.941,-34.544
-0.685,0.489,0.506,4.028,-12.573,0.488,31.146,-38.332
-0.688,0.505,0.513,4.272,-4.517,-4.15,30.756,-41.843
-0.72,0.453,0.429,5.615,-11.719,3.052,30,-44.748
-0.754,0.481,0.417,1.831,-7.751,0.732,29.526,-46.719
-0.745,0.449,0.419,4.639,5.066,-2.258,28.98,-48.274
-0.761,0.48,0.433,5.127,5.249,-0.183,28.504,-49.781
-0.731,0.484,0.439,5.249,10.132,2.869,28.795,-49.555
-0.719,0.462,0.552,2.197,15.869,6.165,28.276,-48.366
-0.687,0.432,0.552,-6.958,21.484,14.709,27.895,-46.912
-0.649,0.397,0.577,-6.042,16.174,10.437,26.869,-45.236
-0.643,0.443,0.588,-13.855,17.517,9.155,26.178,-43.397
-0.626,0.473,0.654,-11.719,17.151,10.62,26.347,-41.514
-0.603,0.442,0.665,-12.817,18.738,17.578,26.371,-39.67
-0.567,0.447,0.65,-12.695,11.475,8.301,27.049,-37.938
-0.552,0.434,0.615,-7.019,19.226,6.165,27.205,-36.735
-0.487,0.429,0.686,-7.141,34.119,8.972,27.086,-35.064
-0.427,0.549,0.753,-16.418,25.085,14.221,28.779,-31.788
-0.396,0.559,0.654,-11.78,25.452,12.451,30.944,-29.081
-0.366,0.607,0.748,-16.296,25.757,5.554,33.013,-25.218
-0.329,0.58,0.736,-13.428,18.86,5.127,35.093,-22.352
-0.26,0.629,0.709,-6.104,25.085,2.075,36.995,-20.014
-0.221,0.705,0.748,-9.766,30.334,-1.831,38.507,-16.877
-0.158,0.655,0.709,-7.446,22.339,6.287,40.016,-14.021
-0.097,0.71,0.678,-12.39,24.231,5.005,42.569,-10.637
-0.008,0.725,0.689,-2.686,28.076,-1.526,44.286,-6.947
0.056,0.708,0.64,0.61,19.592,-1.892,45.769,-3.046
0.085,0.712,0.625,1.77,21.851,0.305,47.325,0.527
0.162,0.762,0.61,-7.324,39.001,-5.737,48.394,4.356
0.255,0.733,0.645,2.502,24.353,0.61,48.466,8.236
0.333,0.675,0.526,17.7,20.142,3.906,48.522,12.545
0.303,0.793,0.62,-10.498,22.278,0.183,48.485,15.434
0.388,0.841,0.545,0.244,19.47,-2.441,48.796,18.432
0.368,0.745,0.523,0.549,1.953,-15.015,49.42,20.248
0.392,0.716,0.518,5.676,-4.456,-0.549,49.529,20.886
aX,aY,aZ,gX,gY,gZ,Roll,Pitch