aX,aY,aZ,gX,gY,gZ,Roll,Pitch
0.864,0.215,-0.421,16.907,-0.793,5.31,12.613,61.331
0.859,0.239,-0.436,-13.855,4.211,-2.075,13.284,60.638
0.908,0.227,-0.396,7.568,3.601,0.793,13.154,61.552
0.872,0.226,-0.44,5.493,4.761,1.16,13.128,61.266
0.866,0.25,-0.463,5.554,6.714,2.502,13.548,60.609
0.839,0.26,-0.528,2.686,17.273,10.742,13.758,59.337
0.782,0.375,-0.582,12.146,34.363,12.634,15.854,55.595
0.739,0.364,-0.656,-6.897,49.866,27.1,17.678,51.608
0.674,0.322,-0.728,8.24,55.481,23.804,18.597,47.064
0.516,0.398,-0.781,-5.432,58.35,28.015,20.709,41.078
0.389,0.453,-0.79,-1.038,48.218,28.564,22.253,34.842
0.271,0.388,-0.826,-0.305,29.419,17.822,23.263,27.918
0.185,0.442,-0.861,-0.488,19.287,10.071,25.459,20.379
0.114,0.461,-0.913,-1.648,18.677,7.812,26.338,14.12
0.038,0.494,-0.917,-0.183,30.396,12.817,26.562,8.764
-0.032,0.429,-0.883,9.521,33.752,15.076,26.96,4.345
-0.107,0.412,-0.935,7.385,31.799,12.329,26.201,0.177
-0.246,0.461,-0.945,14.099,53.284,22.644,25.91,-4.842
-0.338,0.477,-0.731,10.925,52.368,26.55,26.501,-10.446
-0.444,0.429,-0.784,-1.343,35.461,23.071,26.433,-16.496
-0.583,0.431,-0.703,-5.432,40.405,20.874,26.863,-23.885
-0.669,0.361,-0.626,3.601,45.776,19.348,25.901,-31.559
-0.733,0.288,-0.526,11.047,39.124,16.052,22.822,-38.631
-0.801,0.278,-0.49,6.348,26.794,11.108,20.463,-45.788
-0.843,0.309,-0.449,5.493,23.804,12.329,18.511,-51.429
-0.878,0.248,-0.36,4.822,23.804,9.399,16.754,-56.644
-0.896,0.208,-0.365,-2.441,16.296,4.944,15.341,-60.12
-0.943,0.182,-0.331,-16.113,22.4,2.563,13.758,-63.46
-0.926,0.23,-0.294,-21.118,20.508,-3.357,12.584,-66.219
-0.931,0.238,-0.18,-8.24,26.978,7.751,12.479,-68.56
-0.961,0.297,-0.276,-0.366,-0.671,-6.897,13.604,-69.083
-0.977,0.21,-0.21,-0.122,-4.517,-1.526,13.99,-70.164
-0.958,0.203,-0.178,-1.526,0.183,-0.488,13.606,-71.642
-0.964,0.207,-0.168,2.991,-4.395,-0.427,13.076,-72.211
-0.932,0.164,-0.15,22.644,-8.057,-2.991,11.387,-74.59
-0.9,0.297,-0.247,24.902,-25.696,-22.156,12.825,-73.033
-0.819,0.353,-0.341,-3.906,-44.8,-23.254,15.323,-69.31
-0.797,0.33,-0.346,7.324,-53.589,-19.836,17.56,-65.433
-0.589,0.506,-0.553,5.554,-67.81,-26.184,23.333,-55.907
-0.496,0.508,-0.748,5.249,-65.125,-16.724,26.837,-45.947
-0.315,0.485,-0.893,4.456,-51.88,-27.405,28.569,-35.072
-0.188,0.593,-0.843,3.113,-44.312,-21.79,31.4,-23.304
-0.078,0.545,-0.794,5.798,-36.377,-20.752,31.712,-15.41
0.071,0.598,-0.828,-6.714,-42.419,-19.043,33.183,-7.235
0.187,0.554,-0.828,13,-28.259,-17.09,34.822,-0.126
0.271,0.541,-0.782,0.854,-29.053,-21.362,34.448,6.546
0.423,0.556,-0.747,18.066,-41.321,-34.119,34.076,13.729
0.519,0.525,-0.675,21.24,-28.259,-27.649,33.079,20.571
0.632,0.521,-0.659,-12.817,-33.569,-25.391,32.166,27.301
0.728,0.513,-0.608,9.949,-36.438,-24.17,30.848,33.936
0.74,0.452,-0.527,2.075,-20.02,-18.188,29.184,39.438
0.829,0.284,-0.504,-16.846,-9.155,-4.456,25.422,45.285
0.845,0.318,-0.4,-5.432,-18.616,-7.019,22.701,50.705
0.872,0.324,-0.395,12.451,-8.606,-3.601,20.134,55.16
0.896,0.294,-0.368,9.46,-21.79,-10.559,17.694,59.028
0.909,0.286,-0.323,14.038,-6.165,-3.357,17.73,61.349
0.919,0.271,-0.262,19.897,-5.737,1.465,17.008,63.562
aX,aY,aZ,gX,gY,gZ,Roll,Pitch
0.914,0.302,-0.293,6.653,0.549,0.977,16.679,64.989
0.913,0.261,-0.285,-10.376,3.479,-0.854,16.269,66.171
0.906,0.273,-0.324,-1.099,1.77,-0.671,16.104,66.26
0.911,0.271,-0.324,3.601,0.366,-0.61,16.051,65.62
0.907,0.253,-0.309,2.197,1.587,0.244,15.383,65.847
0.922,0.262,-0.323,1.831,0.916,0.549,15.322,65.513
0.927,0.239,-0.286,-0.793,5.493,4.333,14.819,66.308
0.865,0.29,-0.462,-4.822,15.381,14.465,15.076,64.472
0.825,0.371,-0.461,-7.324,38.208,27.771,16.776,61.491
0.767,0.382,-0.545,-2.014,37.292,21.118,18.597,57.303
0.695,0.444,-0.579,-2.441,31.25,18.555,21.594,51.253
0.623,0.445,-0.693,-1.587,35.217,19.287,23.965,46.024
0.496,0.47,-0.766,1.526,45.837,26.428,25.49,39.655
0.387,0.47,-0.768,7.141,45.227,24.963,27.15,33.321
0.287,0.49,-0.806,-4.883,31.982,19.958,28.01,26.706
0.17,0.523,-0.84,-0.427,27.039,13.184,29.499,19.763
0.085,0.514,-0.887,-0.488,29.053,17.456,30.207,13.537
-0.018,0.488,-0.85,2.258,27.344,14.587,30.469,7.583
-0.093,0.467,-0.893,-3.601,28.564,17.029,29.835,2.067
-0.229,0.488,-0.894,2.258,46.509,22.4,28.981,-3.62
-0.325,0.48,-0.81,0.183,57.007,24.048,28.718,-9.563
-0.493,0.398,-0.759,-2.075,48.523,23.743,27.361,-16.598
-0.588,0.352,-0.679,-10.071,44.373,19.47,25.882,-24.543
-0.693,0.313,-0.605,-15.32,33.081,17.334,23.546,-32.904
-0.773,0.353,-0.528,6.958,33.875,14.221,21.374,-40.949
-0.831,0.115,-0.505,9.216,35.706,13.672,17.016,-48.209
-0.862,0.215,-0.421,-19.104,18.188,-2.563,14.787,-54.096
-0.901,0.179,-0.316,-0.793,18.86,7.568,12.75,-59.691
-0.909,0.154,-0.385,0.061,14.221,3.784,9.722,-63.366
-0.942,0.163,-0.34,-10.864,20.508,7.629,10.322,-65.783
-0.952,0.195,-0.328,-7.812,0.549,-4.395,9.912,-67.519
-0.957,0.195,-0.275,-4.578,11.597,2.686,10.052,-68.195
-0.951,0.113,-0.196,9.705,1.77,0.549,9.528,-70.865
-0.967,0.124,-0.246,1.404,4.456,1.465,8.982,-72.344
-0.925,0.12,-0.192,15.625,-18.127,-7.996,8.042,-74.375
-0.906,0.175,-0.266,25.94,-50.476,-7.019,7.844,-74.43
-0.844,0.319,-0.668,20.386,-49.805,-21.301,10.724,-66.853
-0.784,0.317,-0.586,16.968,-27.039,-15.442,13.544,-60.613
-0.712,0.325,-0.58,13.672,-29.785,-18.188,16.367,-53.671
-0.652,0.43,-0.616,8.179,-31.128,-17.639,19.789,-46.725
-0.545,0.478,-0.694,16.052,-29.846,-19.104,22.974,-42.67
-0.433,0.571,-0.735,2.991,-42.725,-20.081,27.173,-36.31
-0.305,0.544,-0.804,16.968,-43.701,-26.367,30.441,-28.966
-0.246,0.635,-0.742,-2.014,-33.386,-11.292,33.672,-22.358
-0.113,0.504,-0.765,26.245,-36.194,-17.883,34.845,-16.152
0.006,0.66,-0.775,18.982,-33.203,-22.034,36.593,-9.65
0.186,0.627,-0.729,10.559,-39.978,-35.767,38.812,-2.484
0.357,0.659,-0.729,4.456,-48.828,-41.382,38.962,6.413
0.479,0.578,-0.715,16.663,-34.668,-39.612,38.95,14.832
0.612,0.618,-0.601,3.357,-30.212,-35.156,37.628,23.691
0.7,0.523,-0.566,-7.446,-17.822,-22.888,35.115,31.303
0.744,0.464,-0.521,-13.977,-16.785,-22.278,32.001,37.975
0.759,0.499,-0.441,-4.333,-8.423,-16.541,30.795,43.231
0.838,0.332,-0.438,7.629,-19.897,-16.357,26.653,48.623
0.872,0.262,-0.398,6.775,-22.766,-16.113,22.925,53.476
0.879,0.31,-0.375,-4.456,-8.484,-2.625,20.591,57.079
0.903,0.288,-0.3,4.272,-7.385,-3.235,17.394,61.143
aX,aY,aZ,gX,gY,gZ,Roll,Pitch
0.89,0.279,-0.342,11.963,-0.122,3.235,16.614,62.877
0.888,0.302,-0.359,-20.142,7.263,-2.869,17.155,63.041
0.908,0.273,-0.351,8.606,5.859,2.93,16.566,63.767
0.869,0.276,-0.35,-4.7,7.263,4.517,16.455,63.145
0.867,0.317,-0.465,-0.854,15.808,10.376,16.867,61.461
0.838,0.303,-0.472,-0.61,28.564,16.174,16.888,59.965
0.79,0.398,-0.497,-4.761,28.87,12.634,18.77,56.765
0.722,0.383,-0.615,-5.432,23.193,15.32,20.171,52.347
0.665,0.394,-0.701,-6.531,31.86,19.226,21.356,47.934
0.576,0.439,-0.751,-8.484,42.603,20.447,23.237,42.258
0.481,0.398,-0.785,-4.028,39.001,20.508,23.26,36.714
0.378,0.409,-0.83,2.319,37.415,14.709,23.812,31.125
0.275,0.454,-0.862,-4.578,33.447,14.038,24.951,25.112
0.178,0.43,-0.879,6.226,32.349,17.944,25.131,19.255
0.066,0.429,-0.946,-1.648,39.551,17.578,25.381,12.9
-0.058,0.414,-0.919,1.892,42.725,21.606,25.418,6.568
-0.193,0.387,-0.923,3.967,43.213,14.709,24.36,-0.106
-0.317,0.351,-0.881,1.587,45.044,13.123,23.127,-7.177
-0.452,0.378,-0.809,-11.597,46.814,12.939,22.605,-14.858
-0.551,0.327,-0.77,2.563,45.471,8.179,21.276,-22.377
-0.637,0.267,-0.662,-1.038,40.894,12.817,19.754,-30.006
-0.704,0.246,-0.642,12.512,29.175,4.944,18.152,-36.83
-0.785,0.245,-0.549,11.536,32.043,7.263,16.143,-43.318
-0.81,0.232,-0.478,-6.042,25.024,3.052,14.791,-49.206
-0.856,0.343,-0.473,-9.583,17.151,5.188,15.616,-52.821
-0.918,0.157,-0.443,6.104,35.645,12.39,14.102,-57.157
-0.872,0.136,-0.221,-19.653,29.297,6.592,12.821,-62.057
-0.928,0.189,-0.236,3.479,4.944,-0.732,12.171,-65.856
-0.988,0.132,-0.271,2.136,9.216,5.737,8.994,-70.354
-0.95,0.219,-0.236,3.357,-2.869,-2.686,9.948,-72.511
-0.929,0.191,-0.244,9.46,-9.338,-2.197,10.58,-72.049
-0.922,0.158,-0.305,21.24,-11.963,-1.282,10.111,-71.499
-0.914,0.224,-0.375,10.01,-27.283,-4.028,11.512,-69.277
-0.847,0.275,-0.414,13,-26.672,-10.376,12.424,-66.301
-0.839,0.254,-0.494,8.667,-21.606,-7.568,13.268,-62.521
-0.772,0.367,-0.474,3.113,-24.048,-8.423,16.408,-58.277
-0.754,0.382,-0.589,5.005,-24.658,-5.859,18.728,-53.814
-0.661,0.319,-0.545,15.381,-27.283,-11.719,19.732,-50.62
-0.586,0.416,-0.608,0.854,-37.842,-22.095,22.685,-46.105
-0.537,0.506,-0.733,17.639,-30.945,-13.245,24.593,-40.605
-0.396,0.465,-0.759,19.348,-32.837,-13.489,26.463,-34.691
-0.337,0.559,-0.75,8.362,-22.949,-15.381,29.772,-28.261
-0.246,0.549,-0.68,13.855,-33.447,-20.813,32.268,-22.911
-0.021,0.595,-0.804,18.005,-51.331,-33.02,34.494,-15.136
0.098,0.685,-0.767,14.526,-48.035,-29.724,38.128,-7.519
0.23,0.691,-0.743,-13.977,-34.79,-16.479,40.086,0.886
0.359,0.594,-0.713,4.028,-34.546,-25.024,39.621,9.53
0.502,0.602,-0.668,-10.742,-41.626,-28.809,39.453,17.076
0.579,0.612,-0.571,17.029,-32.654,-34.302,38.243,24.431
0.718,0.557,-0.505,-14.038,-28.564,-26.062,35.877,32.322
0.747,0.502,-0.463,-13.733,-27.039,-29.907,34,38.782
0.79,0.45,-0.493,-0.916,-3.906,-7.202,31.3,43.977
0.814,0.402,-0.406,-4.395,-9.216,-11.78,28.009,48.96
0.857,0.355,-0.374,-8.484,-9.583,-7.324,25.098,52.799
0.865,0.328,-0.314,7.019,-7.568,-5.066,22.609,56.429
aX,aY,aZ,gX,gY,gZ,Roll,Pitch
0.875,0.386,-0.268,6.409,0.916,0.854,21.824,59.562
0.887,0.366,-0.277,-21.606,5.066,-2.258,21.218,61.499
0.879,0.401,-0.316,-6.226,0.732,-0.305,21.822,61.665
0.875,0.345,-0.3,-1.709,1.221,1.587,22.017,61.675
0.862,0.391,-0.332,-0.183,8.972,9.521,22.044,61.029
0.827,0.407,-0.414,-1.892,20.935,18.311,22.625,59.126
0.816,0.454,-0.433,-8.301,22.644,18.616,23.396,57.229
0.75,0.466,-0.482,-2.563,23.865,19.47,25.179,53.725
0.695,0.544,-0.576,-16.968,28.137,26.306,27.279,49.161
0.612,0.473,-0.661,-1.831,32.288,19.47,28.352,44.782
0.537,0.523,-0.673,-1.099,34.851,19.958,29.622,39.718
0.428,0.524,-0.757,-6.592,38.086,21.606,30.494,33.969
0.307,0.517,-0.816,-5.981,38.757,21.729,30.438,27.96
0.203,0.527,-0.841,-1.282,39.673,19.531,31.413,21.593
0.077,0.533,-0.849,-4.578,40.222,18.799,31.568,14.674
-0.039,0.527,-0.876,-5.981,40.833,18.86,31.555,7.838
-0.214,0.528,-0.808,-5.737,39.001,22.339,32.094,0.385
-0.34,0.501,-0.763,4.456,37.231,24.048,32.07,-7.544
-0.414,0.417,-0.774,-5.005,28.076,14.282,30.323,-14.943
-0.509,0.463,-0.74,4.517,28.259,13.916,29.167,-22.164
-0.598,0.395,-0.716,-4.089,34.058,14.282,26.732,-28.144
-0.648,0.409,-0.603,-5.249,30.029,20.02,25.257,-33.36
-0.723,0.404,-0.561,10.681,28.015,14.587,24.854,-38.584
-0.777,0.278,-0.512,-6.042,28.259,14.709,22.201,-44.284
-0.816,0.346,-0.435,-12.756,24.475,9.705,21.553,-49.263
-0.864,0.248,-0.376,5.737,14.587,4.761,19.046,-54.418
-0.915,0.214,-0.404,-3.662,14.648,6.836,15.997,-58.829
-0.941,0.213,-0.39,-37.415,34.973,10.559,14.72,-61.728
-0.919,0.15,-0.226,-1.282,12.634,3.174,11.941,-65.985
-0.964,0.167,-0.234,9.155,5.554,0.488,10.67,-68.698
-0.938,0.14,-0.212,-1.343,1.709,1.038,9.706,-71.545
-0.931,0.197,-0.167,8.728,-8.301,-3.845,9.644,-74.177
-0.902,0.231,-0.249,16.357,-34.424,-13.184,10.854,-73.121
-0.858,0.195,-0.481,17.029,-38.025,-19.958,11.372,-69.643
-0.794,0.392,-0.518,13.977,-26.428,-12.512,15.108,-63.445
-0.736,0.269,-0.539,24.963,-21.973,-12.512,16.192,-57.55
-0.703,0.358,-0.562,-0.549,-28.32,-17.639,18,-51.876
-0.645,0.44,-0.631,6.47,-20.02,-17.151,21.772,-47.024
-0.565,0.525,-0.65,7.935,-19.043,-11.047,24.078,-42.756
-0.493,0.488,-0.708,14.343,-21.606,-13.55,27.312,-37.558
-0.451,0.541,-0.643,5.249,-25.635,-10.864,30.37,-33.118
-0.385,0.494,-0.762,16.724,-24.719,-13.672,31.43,-28.841
-0.284,0.602,-0.769,4.15,-21.851,-17.273,32.758,-24.24
-0.197,0.621,-0.754,9.949,-23.01,-18.921,35.118,-19.592
-0.127,0.611,-0.764,7.385,-22.156,-17.883,35.988,-14.497
0.003,0.67,-0.666,-11.475,-32.776,-24.597,39.725,-8.867
0.097,0.649,-0.756,28.137,-34.302,-38.208,40.871,-3.283
0.292,0.675,-0.743,-13.123,-31.616,-29.48,41.543,3.88
0.36,0.722,-0.695,10.071,-23.56,-18.494,42.574,10.805
0.422,0.612,-0.661,10.315,-18.005,-15.32,40.745,16.713
0.486,0.677,-0.621,-2.747,-17.273,-8.179,40.582,22.207
0.539,0.515,-0.622,11.047,-14.832,-13.062,38.584,26.515
0.622,0.585,-0.585,0.488,-15.93,-15.259,36.418,30.965
0.642,0.576,-0.523,0.977,-15.686,-17.517,35.64,34.546
0.674,0.556,-0.511,0.488,-8.85,-11.78,33.751,38.075
0.711,0.504,-0.538,3.418,-13.123,-13.916,33.037,40.548
0.748,0.444,-0.49,8.85,-12.329,-6.165,31.035,43.452
0.779,0.442,-0.444,-2.014,-4.028,-1.831,28.91,46.351
0.797,0.442,-0.444,3.662,-5.859,-2.869,27.028,48.871
0.803,0.44,-0.417,6.287,-1.526,-1.953,26.115,51.139
0.807,0.403,-0.401,3.235,-10.986,-7.629,25.538,52.689
0.829,0.39,-0.401,2.197,-0.488,0.244,24.724,53.877
0.833,0.429,-0.383,7.507,-0.793,0.305,24.525,54.779
aX,aY,aZ,gX,gY,gZ,Roll,Pitch
0.823,0.418,-0.383,5.737,0.854,0.977,24.209,55.414
0.811,0.402,-0.372,-11.414,2.93,-2.014,24.253,55.693
0.822,0.394,-0.429,1.282,0.549,-1.404,24.269,55.382
0.819,0.388,-0.393,-1.465,1.831,1.465,23.79,55.538
0.819,0.455,-0.43,3.967,8.118,8.423,24.18,54.807
0.776,0.432,-0.449,-5.188,12.268,11.169,24.556,53.631
0.756,0.461,-0.474,3.113,15.137,11.047,25.638,52.158
0.713,0.503,-0.559,-3.296,25.391,18.738,27.147,49.01
0.629,0.502,-0.6,-3.418,32.349,26.306,28.146,45.553
0.561,0.506,-0.627,-7.446,23.682,17.883,29.466,41.543
0.502,0.56,-0.66,-1.038,16.052,8.789,31.118,36.872
0.443,0.583,-0.757,-3.54,24.719,15.625,32.326,32.054
0.343,0.568,-0.797,-0.366,39.307,24.353,33.182,27.155
0.228,0.534,-0.803,5.493,42.542,25.94,33.615,21.958
0.107,0.58,-0.856,-8.972,46.265,28.137,33.649,15.916
-0.059,0.553,-0.81,-8.789,50.11,27.832,33.916,8.888
-0.206,0.517,-0.82,4.211,47.058,27.588,33.583,1.013
-0.356,0.485,-0.791,-5.798,46.082,28.32,32.777,-7.499
-0.493,0.433,-0.71,-1.038,45.288,24.536,30.9,-16.724
-0.596,0.401,-0.679,-5.005,39.063,23.437,28.213,-25.155
-0.691,0.323,-0.601,-2.136,36.316,20.081,25.112,-33.483
-0.761,0.335,-0.496,26.733,37.048,16.663,22.784,-41.231
-0.818,0.235,-0.463,-10.132,27.405,3.784,19.603,-47.936
-0.874,0.292,-0.41,-0.305,24.658,9.155,17.724,-53.826
-0.906,0.223,-0.415,-0.183,23.804,13.672,15.925,-58.146
-0.941,0.21,-0.325,-12.024,27.588,9.827,13.872,-62.072
-0.954,0.191,-0.302,-6.287,5.005,-0.244,13.044,-64.984
-0.951,0.165,-0.262,8.545,4.517,0.977,11.232,-67.911
-0.943,0.166,-0.24,1.404,5.493,1.892,10.485,-70.47
-0.949,0.191,-0.247,6.775,0.488,-1.404,10.244,-71.525
-0.936,0.202,-0.248,5.432,-3.235,-2.502,10.486,-71.958
-0.916,0.224,-0.206,9.583,-12.512,-6.714,11.457,-71.911
-0.933,0.256,-0.321,23.987,-15.747,-4.333,12.708,-70.209
-0.871,0.252,-0.312,12.817,-22.156,-8.789,13.768,-68.603
-0.862,0.346,-0.385,14.221,-24.414,-17.517,15.903,-65.525
-0.796,0.354,-0.444,20.935,-23.804,-12.329,17.819,-61.293
-0.714,0.439,-0.466,10.864,-28.992,-20.63,21.017,-56.774
-0.62,0.494,-0.583,9.521,-38.513,-30.884,24.804,-50.26
-0.534,0.581,-0.616,0.916,-33.203,-27.832,28.795,-43.407
-0.419,0.636,-0.625,13.062,-29.541,-29.724,33.595,-36.059
-0.307,0.619,-0.711,19.897,-28.809,-31.25,36.433,-28.631
-0.207,0.733,-0.664,4.456,-27.771,-26.855,40.574,-21.801
-0.079,0.719,-0.719,6.47,-24.78,-23.01,43.002,-14.768
0.006,0.677,-0.698,11.658,-26.55,-26.55,43.919,-8.519
0.182,0.779,-0.749,-6.897,-27.954,-32.471,45.762,-1.393
0.195,0.748,-0.664,8.789,-13.062,-15.442,45.769,4.265
0.285,0.673,-0.619,5.981,-16.785,-17.151,45.692,9.547
0.355,0.704,-0.6,17.09,-15.625,-15.808,45.844,14.538
0.426,0.704,-0.61,8.301,-20.935,-25.208,45.37,18.485
0.518,0.633,-0.513,1.221,-22.339,-32.654,43.839,23.828
0.677,0.644,-0.486,6.714,-19.47,-21.606,42.176,29.607
0.667,0.644,-0.475,-0.671,-13.672,-20.02,40.304,34.313
0.71,0.608,-0.475,-7.629,-7.141,-3.296,38.097,38.842
0.741,0.538,-0.406,-0.916,-6.897,-5.31,36.027,42.471
0.76,0.522,-0.435,-8.362,-10.925,-5.798,34.307,44.532
0.765,0.505,-0.413,4.028,-8.911,-5.676,32.277,46.978
0.784,0.448,-0.373,1.404,-5.005,-4.517,30.216,49.681
0.814,0.471,-0.379,5.432,-2.319,-2.075,29.01,51.114
0.818,0.454,-0.348,14.099,-3.479,-1.648,28.058,52.837
aX,aY,aZ,gX,gY,gZ,Roll,Pitch
0.828,0.459,-0.299,4.761,1.221,1.038,27.408,54.609
0.835,0.426,-0.336,-3.113,2.075,-0.183,26.908,55.501
0.84,0.42,-0.366,-1.892,1.709,-1.038,26.143,56.278
0.845,0.395,-0.364,4.456,1.099,-0.549,25.181,56.932
0.834,0.402,-0.368,1.404,8.179,6.409,24.24,56.972
0.833,0.426,-0.376,4.639,5.92,5.493,24.168,56.629
0.782,0.438,-0.439,-6.042,23.621,19.958,24.526,55.433
0.763,0.47,-0.483,-6.836,13.184,15.625,25.629,53.162
0.711,0.458,-0.515,-1.892,9.155,7.996,26.585,50.466
0.676,0.507,-0.59,-10.742,17.7,12.512,27.719,46.743
0.622,0.555,-0.635,-7.08,33.325,22.156,29.251,42.898
0.517,0.538,-0.677,-7.08,32.166,22.705,30.491,38.511
0.451,0.54,-0.735,-10.071,33.264,21.118,31.608,33.719
0.324,0.55,-0.818,-18.311,40.527,25.818,32.357,27.982
0.208,0.471,-0.846,5.493,40.222,23.071,31.524,21.937
0.086,0.471,-0.859,-0.305,38.94,14.404,30.644,15.563
-0.038,0.52,-0.871,-8.667,34.912,15.869,30.286,8.366
-0.15,0.481,-0.895,2.502,37.598,19.958,29.223,1.535
-0.257,0.471,-0.859,0.488,42.358,22.278,29.011,-5.136
-0.381,0.373,-0.82,-1.831,39.551,21.24,27.505,-11.934
-0.488,0.388,-0.747,-2.93,36.682,16.907,25.716,-18.855
-0.583,0.354,-0.731,7.568,35.889,15.625,23.836,-25.807
-0.672,0.283,-0.635,-8.728,35.034,13.306,21.119,-33.158
-0.734,0.32,-0.588,0.061,27.771,10.01,20.17,-39.362
-0.788,0.216,-0.536,16.174,24.902,9.888,17.478,-45.228
-0.796,0.219,-0.438,0.366,14.465,3.906,15.651,-50.883
-0.854,0.292,-0.479,3.723,11.597,5.432,15.524,-54.11
-0.87,0.223,-0.471,2.869,9.888,5.127,13.945,-57.024
-0.868,0.187,-0.37,6.226,13.977,4.456,13.56,-59.64
-0.92,0.21,-0.421,-4.7,18.311,6.958,13.083,-60.773
-0.89,0.214,-0.411,-5.371,-0.183,-3.113,11.998,-62.224
-0.935,0.265,-0.362,2.747,7.385,3.418,12.54,-63.612
-0.907,0.139,-0.31,8.972,3.357,-0.061,11.842,-64.822
-0.935,0.25,-0.337,7.629,1.648,-0.732,12.458,-65.584
-0.942,0.214,-0.355,-4.333,9.888,5.981,12.371,-66.498
-0.896,0.172,-0.275,9.277,-0.977,-0.793,11.266,-67.903
-0.895,0.164,-0.2,12.573,-8.301,-5.432,11.747,-68.903
-0.897,0.247,-0.267,31.189,-24.658,-3.296,11.868,-69.52
-0.872,0.302,-0.511,0.854,-25.269,-14.16,13.188,-66.685
-0.806,0.391,-0.541,-1.709,-23.315,-14.526,16.246,-61.577
-0.778,0.355,-0.537,0.916,-12.268,-7.446,18.677,-55.972
-0.718,0.423,-0.609,-0.305,-16.174,-10.437,20.874,-50.18
-0.666,0.398,-0.647,12.573,-17.639,-10.315,22.554,-46.54
-0.662,0.437,-0.635,2.502,-8.545,-5.127,23.422,-44.087
-0.611,0.429,-0.638,-1.892,-10.864,-6.348,24.701,-41.158
-0.585,0.419,-0.68,5.432,-14.099,-8.667,24.908,-39.191
-0.521,0.432,-0.73,-4.517,-16.968,-11.169,25.589,-36.775
-0.475,0.507,-0.749,-0.549,-19.104,-12.146,26.7,-33.461
-0.424,0.424,-0.793,6.714,-17.822,-11.719,26.533,-30.198
-0.362,0.5,-0.774,9.399,-18.005,-10.925,27.829,-26.543
-0.296,0.531,-0.824,11.108,-15.381,-11.536,29.232,-22.821
-0.243,0.509,-0.828,1.221,-15.686,-10.315,29.431,-19.37
-0.168,0.528,-0.814,-4.456,-18.677,-12.39,31.227,-15.542
-0.078,0.517,-0.835,9.399,-27.344,-16.479,31.574,-11.361
0.002,0.586,-0.784,9.338,-31.067,-9.46,32.989,-7.117
0.103,0.575,-0.845,5.249,-32.959,-10.62,33.917,-2.045
0.175,0.584,-0.78,4.7,-33.752,-10.62,34.834,2.912
0.295,0.606,-0.775,7.812,-23.193,-18.494,36.002,8.255
0.357,0.61,-0.726,0.061,-18.066,-17.09,36.064,13.323
0.432,0.589,-0.697,7.507,-16.785,-13.306,36.466,18.245
0.489,0.557,-0.686,8.301,-15.869,-13.489,35.72,22.875
0.526,0.577,-0.617,0.671,-18.616,-9.705,35.518,26.689
0.568,0.547,-0.627,2.136,-13.916,-13.184,34.442,30.121
0.658,0.553,-0.585,10.742,-17.822,-17.761,33.557,33.657
0.666,0.54,-0.513,6.531,-5.859,-6.104,33.381,36.845
0.7,0.478,-0.523,8.606,-7.263,-10.742,31.697,39.984
0.737,0.49,-0.499,8.667,-7.141,-11.963,30.632,43.03
0.76,0.423,-0.447,2.502,-6.897,-4.822,29.012,45.971
0.775,0.455,-0.455,1.892,-6.226,-4.517,27.534,48.1
0.772,0.464,-0.437,-0.793,-1.709,-2.136,27.25,49.557
0.794,0.443,-0.426,4.272,-2.93,-2.258,26.567,51.016
0.79,0.434,-0.421,3.967,0.671,-1.831,26.616,51.408
0.795,0.429,-0.42,-6.409,-0.488,-0.854,26.278,52.072
0.821,0.356,-0.399,4.944,-2.625,-2.136,24.726,53.684
0.815,0.441,-0.406,7.935,1.77,1.404,24.65,54.029
0.791,0.444,-0.423,-2.38,0.427,-0.366,24.775,53.928
aX,aY,aZ,gX,gY,gZ,Roll,Pitch
0.949,0.11,-0.216,12.085,-0.183,2.136,6.431,75.699
0.97,0.079,-0.176,-17.7,3.418,-3.601,5.495,77.25
0.964,0.117,-0.204,0.061,0.61,-0.366,5.921,76.938
0.963,0.101,-0.2,-2.502,3.479,-0.366,5.9,76.936
0.976,0.157,-0.275,-7.385,22.4,16.846,6.515,75.985
0.953,0.161,-0.318,-12.39,34.729,21.118,7.649,73.656
0.914,0.166,-0.369,10.071,26.978,7.08,8.353,71.137
0.867,0.221,-0.462,-2.808,19.592,7.568,10.062,66.813
0.817,0.286,-0.536,-2.991,29.846,24.353,11.984,62.101
0.81,0.286,-0.656,-7.996,42.297,27.161,13.608,56.695
0.668,0.28,-0.714,-7.141,39.429,23.071,15.195,50.569
0.544,0.368,-0.793,-8.789,41.565,21.118,17.285,43.782
0.454,0.385,-0.859,4.089,42.297,24.109,18.646,36.887
0.326,0.362,-0.895,-4.028,42.664,24.475,20.051,29.304
0.201,0.384,-0.859,6.042,39.063,15.198,21.889,22.274
0.115,0.382,-0.882,0.854,26.733,12.756,22.449,16.041
0.024,0.411,-0.953,-6.47,22.339,10.437,22.854,9.678
-0.043,0.364,-0.91,3.052,26.978,10.803,23.07,4.331
-0.142,0.401,-0.941,3.113,33.752,7.812,22.895,-0.659
-0.29,0.625,-1.035,8.362,51.941,15.991,24.968,-6.068
-0.331,0.248,-0.822,-9.949,39.429,24.475,23.338,-11.253
-0.496,0.308,-0.809,-2.136,26.428,17.883,22.488,-17.726
-0.575,0.246,-0.781,-11.414,28.625,10.193,20.379,-24.394
-0.627,0.204,-0.721,5.859,24.841,7.751,15.081,-31.658
-0.685,0.304,-0.701,-32.532,17.212,5.676,15.463,-36.718
-0.736,0.154,-0.658,9.216,26.245,10.925,13.166,-41.141
-0.763,0.105,-0.606,-7.996,24.78,9.338,11.156,-45.171
-0.824,0.221,-0.528,-5.249,31.25,7.385,11.345,-48.999
-0.868,-0.067,-0.544,-2.136,29.236,13.123,5.961,-53.357
-0.897,0.056,-0.379,-26.55,27.344,-3.479,4.575,-58.16
-0.901,0.035,-0.326,-3.967,12.512,3.113,3.58,-62.794
-0.948,0.035,-0.356,-4.7,13.428,0.488,0.863,-66.034
-0.961,-0.016,-0.333,4.333,-4.15,2.319,1.598,-69.326
-0.89,0.088,-0.211,9.766,-0.732,-0.916,2.093,-71.543
-0.932,-0.018,-0.313,12.329,-11.902,-2.075,1.303,-71.932
-0.906,0.153,-0.304,-14.526,-23.682,-11.414,3.067,-72.259
-0.857,0.112,-0.43,21.79,-28.381,-11.047,5.045,-70.034
-0.792,0.196,-0.65,25.513,-38.025,-23.682,6.529,-63.293
-0.752,0.289,-0.607,-1.16,-25.269,-17.334,11.003,-57.249
-0.665,0.233,-0.633,22.766,-23.071,-10.986,12.18,-51.227
-0.607,0.289,-0.688,14.587,-30.273,-16.602,14.775,-45.503
-0.519,0.42,-0.742,13.245,-33.264,-19.47,18.452,-40.872
-0.404,0.415,-0.834,14.832,-40.527,-22.888,20.469,-34.461
-0.322,0.522,-0.884,-1.404,-28.259,-15.259,24.261,-27.53
-0.258,0.491,-0.836,8.362,-14.038,-11.963,27.029,-21.689
-0.195,0.487,-0.848,10.986,-10.681,-6.653,28.018,-16.796
-0.124,0.527,-0.801,3.296,-13.123,-7.812,30.179,-12.871
-0.064,0.513,-0.828,10.315,-26.245,-10.193,30.886,-9.38
0.012,0.613,-0.853,5.737,-32.898,-12.573,32.562,-5.356
0.149,0.486,-0.778,21.667,-36.743,-18.25,33.262,-0.405
0.277,0.514,-0.776,5.371,-47.791,-26.489,33.128,5.511
0.413,0.522,-0.815,17.212,-33.081,-27.71,32.645,12.414
0.518,0.536,-0.723,9.644,-24.292,-25.696,31.361,20.072
0.615,0.502,-0.647,11.292,-26.489,-26.123,30.81,26.77
0.658,0.491,-0.651,25.757,-17.029,-29.053,29.725,32.2
0.818,0.386,-0.427,29.114,-38.391,-41.077,28.149,40.006
0.849,0.374,-0.43,25.574,-23.804,-29.48,25.671,46.618
0.873,0.376,-0.376,-0.671,-7.263,-10.864,23.655,52.098
0.902,0.27,-0.322,6.958,-9.888,-7.324,20.41,58.652
0.91,0.26,-0.294,-15.137,-16.418,-9.766,18.572,61.566
0.944,0.251,-0.235,-24.597,-12.695,-12.085,16.815,65.069
0.975,0.107,-0.308,-3.357,-9.827,-3.906,12.827,68.616
0.923,0.209,-0.265,22.644,-2.319,-2.563,11.96,69.82
aX,aY,aZ,gX,gY,gZ,Roll,Pitch
0.948,0.177,-0.214,7.935,0.488,1.709,10.738,71.547
0.946,0.185,-0.225,-18.677,2.686,-1.892,9.799,72.188
0.953,0.193,-0.259,-6.287,2.686,0.793,11.104,71.941
0.938,0.174,-0.299,3.357,9.399,4.517,10.542,71.935
0.906,0.201,-0.297,-11.536,12.878,13.733,10.937,70.63
0.915,0.205,-0.378,-8.545,12.756,12.207,11.17,68.599
0.902,0.245,-0.44,-1.343,24.902,17.151,11.856,65.914
0.832,0.293,-0.517,-0.427,33.203,16.418,13.557,62.07
0.802,0.314,-0.536,-3.113,36.316,22.522,15.06,58.093
0.714,0.32,-0.617,-12.085,30.029,17.944,16.819,53.41
0.663,0.381,-0.683,-1.709,28.625,20.264,18.894,48.203
0.52,0.403,-0.73,-5.249,28.564,22.705,20.842,42.625
0.489,0.363,-0.809,9.521,28.503,19.226,21.575,36.738
0.382,0.462,-0.873,-8.484,38.025,22.339,23.419,30.477
0.311,0.437,-0.866,-1.526,29.602,21.362,24.265,24.829
0.183,0.44,-0.875,-10.376,34.485,20.691,24.798,19.649
0.088,0.408,-0.935,4.089,28.992,16.602,25.42,13.694
-0.035,0.367,-0.941,-2.441,35.828,20.264,24.315,7.826
-0.129,0.404,-0.891,0.366,36.621,21.606,23.966,1.532
-0.254,0.34,-0.893,-2.869,39.124,17.7,22.458,-4.774
-0.355,0.351,-0.858,5.371,35.828,18.005,21.753,-11.3
-0.45,0.258,-0.852,5.127,25.391,11.353,20.135,-17.598
-0.52,0.361,-0.783,-9.705,24.17,12.39,19.326,-23.506
-0.57,0.345,-0.727,13.367,23.254,8.789,19.391,-28.589
-0.645,0.316,-0.679,16.785,21.484,11.292,18.874,-33.525
-0.691,0.302,-0.743,-6.714,22.522,11.414,19.19,-37.025
-0.717,0.261,-0.582,-15.686,28.687,8.362,17.908,-41.247
-0.785,0.235,-0.581,-6.47,21.057,10.376,16.18,-45.24
-0.799,0.133,-0.543,-0.916,12.817,4.944,13.534,-48.805
-0.852,0.215,-0.545,-8.606,11.23,5.554,12.283,-52.698
-0.842,0.158,-0.551,1.587,-0.366,-6.653,10.601,-54.485
-0.851,0.21,-0.474,-5.737,5.493,3.296,10.268,-56.303
-0.866,0.164,-0.462,11.292,5.554,4.089,10.663,-57.594
-0.87,0.141,-0.49,8.911,3.54,0.854,9.661,-58.652
-0.844,0.159,-0.462,-0.366,-2.441,-2.197,9.77,-59.693
-0.803,0.135,-0.461,11.597,-15.869,-8.728,8.798,-59.796
-0.792,0.205,-0.559,6.653,-31.189,-13.672,9.421,-57.931
-0.727,0.264,-0.659,15.625,-31.921,-13.367,11.283,-54.319
-0.66,0.3,-0.7,10.376,-22.217,-11.353,13.332,-49.52
-0.614,0.365,-0.647,1.038,-22.339,-10.864,16.655,-44.878
-0.502,0.353,-0.731,9.521,-35.522,-25.574,19.079,-39.62
-0.391,0.457,-0.82,15.747,-40.283,-31.25,22.174,-33.679
-0.263,0.543,-0.767,8.85,-40.283,-25.33,26.446,-27.329
-0.117,0.514,-0.91,13.062,-41.077,-17.334,28.279,-18.861
0.011,0.575,-0.872,18.616,-30.884,-22.217,31.163,-10.861
0.052,0.593,-0.821,7.935,-24.109,-18.799,33.327,-4.49
0.152,0.617,-0.799,2.014,-13.55,-5.371,34.048,1.373
0.217,0.572,-0.743,6.958,-19.104,-10.559,35.851,6.157
0.312,0.583,-0.766,-2.258,-22.278,-23.682,36.373,10.583
0.391,0.56,-0.75,9.338,-25.208,-20.325,35.757,15.569
0.447,0.547,-0.701,-20.264,-20.081,-18.616,34.757,20.142
0.553,0.533,-0.685,8.179,-23.499,-20.874,33.451,24.979
0.629,0.534,-0.608,9.033,-27.1,-22.766,32.533,29.976
0.708,0.435,-0.555,18.921,-18.494,-23.987,30.637,35.547
0.768,0.461,-0.528,7.019,-20.63,-27.71,28.828,40.776
0.817,0.401,-0.458,-1.343,-20.996,-25.085,26.771,45.986
0.887,0.328,-0.423,3.723,-16.296,-19.47,23.485,51.292
0.871,0.215,-0.343,-1.404,-9.277,-3.601,20.402,56.122
0.91,0.298,-0.341,-7.446,-3.113,-7.812,17.997,60.188
0.927,0.203,-0.337,-13.489,-17.761,-10.742,15.077,63.64
0.944,0.19,-0.282,1.892,-2.319,-4.7,13.148,66.511
0.939,0.194,-0.301,16.296,-0.183,2.319,12.697,67.498
aX,aY,aZ,gX,gY,gZ,Roll,Pitch
0.922,0.195,-0.294,12.268,0.366,2.014,11.273,68.841
0.93,0.2,-0.282,-15.747,4.028,-1.465,11.269,69.494
0.957,0.162,-0.289,-0.488,4.15,3.174,10.837,69.686
0.906,0.238,-0.332,-3.418,2.808,3.052,11.514,68.844
0.923,0.229,-0.316,-3.052,8.85,9.338,11.967,68.35
0.9,0.226,-0.374,-3.235,5.005,5.92,12.322,66.986
0.898,0.266,-0.411,-1.587,13.367,11.23,13.807,64.575
0.858,0.301,-0.433,-10.315,15.869,15.503,14.706,62.748
0.833,0.316,-0.523,-4.578,28.809,17.7,15.877,59.385
0.776,0.356,-0.586,-5.493,41.931,25.085,17.674,55.492
0.653,0.395,-0.641,-5.432,39.307,24.536,19.766,50.452
0.584,0.39,-0.759,7.141,27.283,23.132,21.016,44.447
0.485,0.44,-0.741,2.258,28.32,21.24,23.154,38.396
0.413,0.471,-0.815,2.258,29.053,20.813,24.941,32.072
0.322,0.547,-0.844,-7.263,36.438,24.353,26.936,26.236
0.234,0.514,-0.852,-12.695,39.551,16.479,28.968,20.927
0.063,0.437,-0.901,1.77,36.682,19.531,28.916,14.689
-0.033,0.483,-0.896,-6.409,41.199,19.287,29.224,8.303
-0.153,0.4,-0.889,1.648,42.603,19.531,27.394,1.601
-0.272,0.409,-0.894,-16.113,40.222,11.597,25.653,-5.675
-0.385,0.416,-0.824,3.906,40.161,15.564,25.372,-12.209
-0.459,0.281,-0.83,-0.122,45.166,11.658,22.353,-18.68
-0.6,0.374,-0.7,7.69,36.743,17.029,21.946,-25.674
-0.671,0.22,-0.692,10.742,25.208,13.855,19.19,-32.584
-0.714,0.222,-0.606,12.085,18.127,5.31,16.345,-38.856
-0.76,0.353,-0.572,-12.634,16.357,-0.061,17.256,-44.185
-0.809,0.264,-0.609,11.292,22.705,7.996,15.337,-47.619
-0.798,0.219,-0.451,-1.587,17.7,7.996,15.517,-51.227
-0.815,0.119,-0.457,44.373,8.545,-0.977,14.079,-54.182
-0.849,0.229,-0.498,-9.766,-1.587,-2.625,12.206,-56.334
-0.818,0.274,-0.441,9.46,-6.897,-2.258,12.6,-58.254
-0.785,0.165,-0.429,2.197,-15.564,-4.456,11.878,-58.694
-0.789,0.33,-0.563,18.127,-15.137,-5.92,14.814,-56.158
-0.732,0.311,-0.586,-4.089,-19.104,-4.761,16.18,-53.766
-0.673,0.28,-0.578,5.798,-19.47,-7.08,16.442,-50.99
-0.624,0.349,-0.687,4.15,-24.597,-13.733,18.882,-45.94
-0.543,0.433,-0.735,11.475,-27.71,-12.756,20.626,-41.308
-0.493,0.379,-0.718,21.79,-18.982,-8.179,21.919,-37.185
-0.432,0.46,-0.782,-2.136,-21.79,-10.01,24.288,-32.061
-0.364,0.456,-0.806,13.489,-16.541,-7.69,25.961,-27.654
-0.254,0.458,-0.792,7.996,-28.931,-17.517,26.857,-23.439
-0.168,0.593,-0.84,-6.165,-37.781,-22.278,29.732,-17.899
-0.073,0.595,-0.802,15.503,-35.034,-17.273,32.084,-12.541
0.057,0.589,-0.799,8.545,-32.288,-17.273,34.405,-6.351
0.157,0.569,-0.732,6.47,-32.715,-30.701,36.474,-0.39
0.284,0.639,-0.79,-9.705,-28.32,-22.217,37.195,6.174
0.411,0.598,-0.704,8.057,-23.499,-23.315,37.163,13.261
0.501,0.539,-0.628,23.193,-25.94,-23.926,36.589,20.114
0.622,0.554,-0.638,5.188,-16.357,-24.353,35.181,26.709
0.674,0.532,-0.558,-0.488,-23.621,-26.184,33.507,33.253
0.733,0.511,-0.571,7.69,-19.043,-25.208,31.514,38.241
0.771,0.439,-0.479,1.038,-11.292,-15.93,29.567,42.716
0.819,0.376,-0.443,1.221,-12.512,-15.564,27.102,47.276
0.832,0.37,-0.404,0.61,-9.338,-12.085,24.749,51.106
0.87,0.34,-0.39,1.099,-8.057,-12.939,22.336,55.108
0.872,0.282,-0.413,9.583,-4.089,-7.202,19.925,57.729
0.881,0.328,-0.388,13.611,0.427,20.081,19.131,59.068
0.893,0.232,-0.349,4.517,-18.25,-9.399,17.115,61.094
aX,aY,aZ,gX,gY,gZ,Roll,Pitch
0.89,0.263,-0.343,19.043,-1.038,1.831,16.06,62.289
0.937,0.278,-0.286,-28.259,4.15,-3.174,15.964,64.019
0.895,0.266,-0.358,-4.944,3.174,1.892,15.095,64.907
0.891,0.298,-0.339,15.869,4.395,5.676,16.025,64.459
0.89,0.265,-0.372,-1.465,18.066,15.93,16.01,64.159
0.844,0.364,-0.461,-23.437,20.508,14.282,17.255,61.138
0.797,0.387,-0.579,-11.23,37.659,21.24,18.857,57.404
0.701,0.379,-0.675,0.122,52.856,34.363,19.923,52.17
0.571,0.397,-0.729,-10.864,51.88,29.846,21.876,45.31
0.443,0.41,-0.795,3.052,41.321,26.428,22.785,38.197
0.314,0.494,-0.801,-1.404,34.79,20.203,24.891,30.541
0.194,0.453,-0.899,6.653,32.104,18.982,26.193,22.523
0.083,0.498,-0.867,-4.333,37.354,17.029,27.808,15.072
-0.012,0.405,-0.933,-3.296,44.373,18.677,27.547,8.33
-0.147,0.44,-0.864,4.944,41.077,18.616,26.744,1.697
-0.256,0.431,-0.876,-3.357,34.851,16.663,26.532,-4.794
-0.367,0.428,-0.838,3.784,33.691,18.799,25.36,-11.337
-0.47,0.347,-0.825,2.38,39.124,21.729,24.45,-18.178
-0.586,0.387,-0.71,5.737,38.513,16.541,23.537,-24.904
-0.646,0.244,-0.683,16.663,32.959,11.292,20.856,-31.607
-0.73,0.286,-0.604,-14.282,30.457,13.184,18.745,-38.193
-0.775,0.278,-0.524,3.906,34.851,9.338,17.8,-44.458
-0.835,0.234,-0.42,2.686,18.066,12.451,15.623,-50.493
-0.845,0.19,-0.49,1.343,2.136,-2.014,14.646,-54.581
-0.863,0.257,-0.427,0.061,4.517,1.099,14.149,-57.745
-0.839,0.235,-0.438,4.761,-0.977,-2.197,13.489,-59.428
-0.843,0.273,-0.454,1.282,0.916,-2.197,13.958,-58.896
-0.823,0.252,-0.416,10.498,-8.301,-5.005,15.022,-59.17
-0.813,0.262,-0.582,19.348,-23.499,-2.319,14.976,-57.094
-0.75,0.368,-0.51,-14.587,-21.24,-9.705,16.988,-54.83
-0.699,0.431,-0.618,2.136,-28.137,-10.437,19.308,-51.012
-0.672,0.339,-0.681,7.568,-13.977,-14.038,20.304,-46.648
-0.612,0.414,-0.667,-3.418,-13,-12.512,22.83,-43.09
-0.517,0.442,-0.666,12.634,-23.987,-22.522,24.146,-38.946
-0.443,0.503,-0.667,23.315,-32.104,-27.405,25.913,-35.267
-0.372,0.54,-0.801,15.259,-29.297,-25.391,29.114,-29.88
-0.26,0.608,-0.735,2.075,-22.4,-19.592,32.531,-24.152
-0.14,0.635,-0.788,9.644,-28.809,-20.935,35.29,-17.891
-0.028,0.625,-0.717,17.09,-30.701,-25.635,37.44,-11.658
0.041,0.687,-0.786,5.859,-29.907,-11.841,39.947,-5.581
0.115,0.684,-0.755,11.78,-17.456,-9.094,40.823,-0.172
0.183,0.63,-0.709,-0.183,-21.851,-30.212,41.374,4.478
0.279,0.586,-0.694,10.925,-25.757,-22.705,40.71,8.952
0.397,0.667,-0.7,4.822,-21.423,-29.297,40.393,14.212
0.458,0.643,-0.605,0.366,-27.466,-21.912,40.006,19.578
0.574,0.604,-0.608,2.686,-22.583,-24.475,38.738,25.311
0.649,0.536,-0.571,18.005,-20.508,-22.095,37.11,30.781
0.661,0.557,-0.507,3.174,-12.817,-15.869,35.537,35.571
0.748,0.484,-0.452,7.019,-16.235,-17.761,32.758,40.743
0.811,0.47,-0.399,21.24,-23.132,-26.672,30.642,45.559
0.826,0.448,-0.367,9.583,-13.123,-16.174,29.241,49.396
0.843,0.371,-0.354,-8.728,-1.77,-6.042,26.289,53.717
0.863,0.378,-0.329,6.775,-6.714,-5.249,24.584,56.549
0.887,0.345,-0.313,-6.348,-6.653,-8.24,22.725,58.954
0.935,0.269,-0.282,-3.601,-13.184,-8.911,19.957,62.097
0.911,0.305,-0.288,2.075,-15.808,-9.949,18.852,63.738
aX,aY,aZ,gX,gY,gZ,Roll,Pitch
0.963,0.172,-0.185,3.235,1.038,-1.221,9.946,75.298
0.972,0.192,-0.196,-1.099,-0.977,-6.226,10.444,74.771
0.982,0.198,-0.185,5.127,0.244,0.366,10.695,74.719
0.923,0.095,-0.171,11.658,5.859,5.737,9.53,75.588
0.951,0.16,-0.255,10.62,27.466,12.817,9.361,74.901
0.94,0.251,-0.358,11.23,34.973,13.062,10.194,72.491
0.907,0.224,-0.442,-0.549,34.607,9.949,10.57,69.011
0.84,0.294,-0.481,5.737,33.63,14.465,13.244,63.73
0.751,0.301,-0.6,2.38,37.048,11.169,15.269,57.811
0.705,0.342,-0.71,-1.465,43.945,14.648,16.555,51.836
0.605,0.356,-0.727,3.418,44.922,18.86,18.593,45.705
0.504,0.395,-0.77,7.263,43.03,18.738,20.129,39.29
0.386,0.37,-0.824,-0.549,39.612,18.311,21.332,33.159
0.278,0.421,-0.88,0.366,30.64,12.573,22.841,26.507
0.177,0.45,-0.894,2.014,33.691,12.329,24.267,19.741
0.097,0.416,-0.933,8.057,37.231,14.587,24.379,13.515
-0.055,0.366,-0.897,9.399,37.781,13.611,24.415,7.135
-0.114,0.483,-0.886,-4.15,32.471,12.39,25.383,1.496
-0.209,0.44,-0.887,-3.845,32.776,14.099,25.251,-4.033
-0.301,0.418,-0.872,-6.958,32.593,15.991,25.326,-9.807
-0.41,0.396,-0.828,3.113,31.982,14.221,25.618,-14.916
-0.491,0.391,-0.774,11.414,31.555,12.756,24.301,-20.659
-0.563,0.325,-0.747,-3.906,32.227,14.832,22.616,-26.338
-0.651,0.352,-0.646,1.16,31.006,17.456,21.765,-32.398
-0.709,0.288,-0.623,-4.944,27.466,12.695,20.17,-37.898
-0.771,0.262,-0.569,-10.498,26.855,10.193,18.184,-43.274
-0.829,0.193,-0.513,0,32.41,12.085,16.154,-48.776
-0.859,0.215,-0.423,-13.794,28.015,5.676,14.097,-53.611
-0.894,0.251,-0.404,-0.549,23.865,8.728,13.434,-57.691
-0.94,0.046,-0.278,-15.564,48.035,3.784,10.315,-63.39
-0.927,0.199,-0.162,-4.517,23.56,-0.305,10.512,-68.136
-0.978,0.118,-0.197,11.658,0.488,0,8.994,-72.103
-0.942,0.198,-0.084,4.456,9.644,-2.136,8.29,-76.444
-0.984,0.16,-0.151,3.174,-1.587,1.77,9.885,-76.793
-0.932,0.174,-0.078,18.494,-8.301,-1.16,9.534,-77.853
-0.96,0.216,-0.177,-4.761,-11.169,-8.545,10.999,-76.822
-0.901,0.184,-0.183,24.17,-28.564,-3.357,10.866,-76.017
-0.85,0.374,-0.407,44.067,-59.082,-14.221,14.218,-70.792
-0.798,0.286,-0.433,27.893,-58.899,-22.888,15.943,-65.479
-0.737,0.399,-0.509,7.385,-46.204,-16.602,18.909,-59.02
-0.627,0.447,-0.637,9.216,-37.537,-20.813,22.635,-50.403
-0.495,0.551,-0.682,14.587,-40.955,-26.855,25.742,-43.315
-0.366,0.634,-0.771,10.498,-38.208,-20.569,30.694,-34
-0.212,0.636,-0.739,17.09,-42.969,-28.564,34.498,-25.124
-0.095,0.629,-0.824,0.366,-37.903,-28.015,37.144,-16.733
0.012,0.674,-0.782,2.38,-33.142,-22.888,38.919,-9.3
0.144,0.671,-0.728,2.075,-34.302,-25.33,40.295,-2.157
0.265,0.645,-0.737,15.869,-38.025,-30.884,40.283,4.605
0.438,0.609,-0.682,15.381,-25.024,-34.363,40.398,12.365
0.52,0.654,-0.628,-1.038,-18.311,-22.095,39.81,19.838
0.615,0.594,-0.587,7.629,-24.048,-19.104,37.904,26.838
0.667,0.545,-0.52,16.174,-15.503,-18.066,36.077,33.329
0.708,0.508,-0.474,-0.977,-7.935,-8.118,34.53,38.202
0.771,0.484,-0.474,-16.174,-20.142,-12.878,31.756,43.011
0.755,0.448,-0.414,-14.343,-22.095,-16.357,29.857,46.684
0.811,0.401,-0.425,-1.831,-24.414,-19.165,27.54,49.876
0.879,0.306,-0.387,-7.69,-19.348,-17.456,24.25,53.714
0.892,0.287,-0.297,-42.236,-6.348,-2.686,21.464,57.842
0.933,0.229,-0.285,-2.014,-22.644,-18.555,17.934,62.167
0.947,0.248,-0.218,-2.441,-20.081,-12.756,15.58,66.346
0.954,0.154,-0.22,19.47,-0.183,3.235,13.373,69.769
aX,aY,aZ,gX,gY,gZ,Roll,Pitch
0.955,0.2,-0.261,7.568,0.549,1.953,11.982,71.218
0.981,0.229,-0.222,-38.208,5.127,-7.751,11.879,72.091
0.929,0.241,-0.284,-12.268,11.292,2.747,11.794,71.397
0.912,0.287,-0.332,-6.958,18.311,13.367,13.669,68.907
0.892,0.313,-0.419,-7.935,36.56,30.212,15.259,66.041
0.803,0.31,-0.451,11.719,31.189,26.978,16.702,62.012
0.766,0.364,-0.552,-5.493,32.654,24.231,18.528,57.275
0.643,0.466,-0.684,-1.648,37.659,21.606,21.184,50.501
0.556,0.491,-0.752,-8.118,45.105,26.855,23.855,43.335
0.388,0.481,-0.821,-5.615,54.26,32.715,26.194,35.187
0.227,0.446,-0.891,-0.916,50.842,26.855,27.416,26.309
0.102,0.431,-0.832,-5.188,47.302,22.583,27.624,18.621
-0.021,0.456,-0.906,2.991,33.508,17.761,27.276,10.123
-0.148,0.442,-0.888,0.366,36.377,20.081,26.756,2.319
-0.244,0.391,-0.857,-0.793,30.273,14.893,26.192,-4.58
-0.334,0.404,-0.844,2.258,27.527,13.489,25.341,-10.893
-0.423,0.373,-0.811,1.465,23.315,10.925,24.154,-16.981
-0.482,0.393,-0.83,-8.667,25.696,9.583,23.121,-21.889
-0.546,0.407,-0.751,6.042,29.785,10.62,23.105,-26.366
-0.607,0.348,-0.708,2.991,29.053,15.137,22.232,-30.779
-0.679,0.323,-0.657,-1.953,33.569,15.93,21.433,-35.088
-0.747,0.201,-0.62,-3.235,33.386,10.315,18.776,-40.487
-0.796,0.251,-0.467,14.038,39.246,19.043,16.688,-46.36
-0.892,0.235,-0.398,4.944,34.363,16.235,14.956,-52.752
-0.963,0.13,-0.414,-1.831,34.119,5.493,11.847,-58.683
-0.928,0.202,-0.232,-7.69,26.733,-2.563,11.891,-64.357
-0.936,0.137,-0.221,5.066,14.709,-2.502,10.166,-68.733
-0.952,0.163,-0.186,7.446,0.854,0.427,9.16,-71.999
-0.946,0.199,-0.148,6.287,0.61,-1.709,10.351,-74.347
-0.955,0.212,-0.212,7.812,-14.099,-2.747,10.426,-74.571
-0.941,0.171,-0.307,20.264,-33.508,-1.77,10.835,-73.387
-0.911,0.303,-0.375,8.545,-22.217,-10.803,12.79,-69.991
-0.794,0.272,-0.385,4.395,-32.654,-23.682,14.06,-66.077
-0.732,0.356,-0.46,10.376,-45.898,-23.987,16.545,-60.861
-0.685,0.458,-0.629,7.385,-29.724,-16.846,20.949,-53.463
-0.605,0.45,-0.611,0.671,-27.1,-15.564,23.664,-47.39
-0.506,0.532,-0.677,7.019,-32.104,-17.334,27.356,-40.314
-0.388,0.523,-0.707,9.216,-37.72,-32.471,29.894,-33.682
-0.203,0.487,-0.733,-12.329,-55.603,-42.175,31.776,-26.749
-0.044,0.601,-0.908,19.409,-55.786,-31.982,33.537,-17.122
0.07,0.702,-0.785,11.475,-36.133,-24.048,36.005,-8.263
0.207,0.611,-0.797,-2.136,-30.273,-23.682,36.688,0.419
0.33,0.646,-0.71,21.057,-28.992,-25.635,38.23,7.828
0.464,0.588,-0.701,17.883,-32.166,-24.353,38.697,15.265
0.538,0.603,-0.635,5.249,-24.536,-20.996,37.119,22.329
0.614,0.554,-0.599,13.855,-30.945,-24.536,36.04,28.654
0.708,0.522,-0.496,13.306,-27.649,-31.128,33.976,34.978
0.783,0.468,-0.439,7.202,-23.926,-23.315,32.127,40.903
0.831,0.408,-0.372,15.686,-27.954,-28.381,29.155,47.099
0.874,0.415,-0.388,-1.404,-14.526,-11.292,26.628,52.162
0.888,0.356,-0.245,-15.076,-5.249,-2.686,24.166,57.015
0.906,0.33,-0.285,8.423,-16.785,-12.39,22.037,60.424
0.927,0.28,-0.253,-0.122,-6.531,-4.333,20.067,63.271
0.94,0.252,-0.233,2.808,2.014,-0.244,17.785,66.576
0.93,0.274,-0.245,7.629,-0.732,-2.441,16.492,67.635
0.924,0.275,-0.189,4.395,-4.333,-3.418,15.753,69.128
aX,aY,aZ,gX,gY,gZ,Roll,Pitch