aX,aY,aZ,gX,gY,gZ,Roll,Pitch
0.906,0.131,-0.383,12.268,-2.869,6.714,7.609,65.905
0.899,0.149,-0.337,-19.287,1.892,-9.46,8.208,66.829
0.923,0.165,-0.382,-9.766,2.808,-2.319,8.615,66.46
0.894,0.163,-0.441,0.244,18.799,-0.793,8.788,65.396
0.825,0.21,-0.588,-13.977,46.753,20.996,9.875,62.064
0.823,0.277,-0.706,10.925,98.694,27.649,11.364,56.788
0.67,0.316,-0.835,14.038,103.027,34.302,13.227,49.473
0.446,0.301,-1.065,21.912,111.694,40.405,14.661,39.279
0.164,0.377,-0.903,-8.118,108.276,42.603,17.269,29.4
-0.164,0.389,-0.796,16.724,91.919,30.09,20.15,16.149
-0.324,0.378,-0.721,19.592,41.748,19.653,22.5,1.864
-0.472,0.278,-0.587,0.366,16.174,9.277,24.555,-13.442
-0.421,0.343,-0.696,5.31,-30.212,-15.503,23.963,-23.822
-0.308,0.424,-0.645,-7.202,-54.871,-25.391,24.962,-26.879
-0.073,0.497,-0.809,-0.732,-91.492,-48.462,27.06,-22.054
0.199,0.552,-0.909,39.001,-78.003,-47.729,30.217,-9.6
0.364,0.508,-0.897,-15.93,-71.594,-35.339,31.232,2.752
0.576,0.487,-0.834,-3.784,-63.171,-33.447,29.501,14.903
0.729,0.345,-0.708,-6.531,-56.091,-37.781,26.246,25.918
0.809,0.35,-0.599,1.526,-41.565,-26.001,23.305,35.48
0.825,0.333,-0.531,14.465,-30.09,-14.404,20.869,43.728
0.824,0.303,-0.414,-13.794,-12.024,-2.441,18.831,50.614
0.885,0.2,-0.377,20.874,-38.452,-11.841,17.1,55.96
0.913,0.188,-0.365,22.766,-26.733,-13.245,14.95,60.207
aX,aY,aZ,gX,gY,gZ,Roll,Pitch
0.928,0.177,-0.369,35.461,-0.854,14.282,12.674,63.7
0.992,-0.187,-0.629,-62.561,38.818,6.409,5.279,64.42
0.888,0.207,-0.691,-7.568,79.773,33.386,5.195,60.688
0.721,0.32,-0.846,7.385,111.938,31.616,6.795,53.763
0.53,0.394,-0.898,18.372,108.643,37.842,9.525,44.821
0.243,0.241,-1.016,33.997,101.135,51.208,15.495,33.184
-0.021,0.389,-0.798,-15.015,99.304,44.617,19.246,21.173
-0.253,0.378,-0.723,-1.404,59.204,21.973,22.003,7.66
-0.46,0.296,-0.795,2.991,37.354,11.841,21.172,-7.806
-0.514,0.395,-0.678,-4.333,30.518,7.874,24.207,-20.534
-0.518,0.284,-0.607,14.16,4.883,-2.136,22.275,-29.271
-0.475,0.284,-0.581,2.93,-26.611,-6.531,20.824,-33.746
-0.4,0.422,-0.789,19.348,-68.542,-23.071,22.957,-32.487
-0.118,0.51,-0.942,-0.366,-77.271,-30.212,24.534,-24.717
0.073,0.496,-0.793,4.883,-77.637,-31.372,27.868,-14.54
0.344,0.486,-0.926,10.315,-90.881,-45.898,29.014,-1.457
0.512,0.467,-0.827,0,-78.369,-45.288,28.674,11.466
0.762,0.405,-0.731,7.446,-86.426,-46.143,26.688,24.19
0.811,0.343,-0.614,-6.714,-41.748,-23.193,23.367,34.501
0.828,0.333,-0.505,1.77,-17.822,-21.24,21.364,43.297
0.869,0.176,-0.446,-1.343,-23.865,-6.653,17.457,51.331
0.915,0.224,-0.349,2.441,-22.461,-6.775,15.33,57.327
0.908,0.168,-0.352,16.846,-13.855,-2.319,13.034,61.871
aX,aY,aZ,gX,gY,gZ,Roll,Pitch
0.966,0.242,-0.229,4.517,1.587,3.723,13.693,70.963
0.935,0.311,-0.225,-26.794,13.428,-5.676,15.79,69.384
0.936,0.195,-0.361,-8.057,19.592,5.554,14.209,68.705
0.888,0.27,-0.519,-3.906,61.584,18.982,14.416,65.761
0.826,0.261,-0.62,2.502,85.449,29.785,14.595,60.702
0.683,0.224,-0.897,2.136,91.37,33.142,13.013,52.279
0.481,0.365,-0.887,-14.038,98.206,26.917,15.259,42.599
0.232,0.404,-0.85,13.062,90.881,13.611,17.637,32.503
0.025,0.333,-0.779,13.611,54.81,4.639,19.711,21.21
-0.101,0.344,-0.88,-9.949,36.377,8.423,22.694,9.792
-0.052,0.304,-0.656,12.817,-19.836,-8.301,23.612,1.732
0.041,0.392,-0.935,-19.531,-64.331,-18.127,22.893,-1.401
0.232,0.385,-0.912,3.235,-74.097,-24.536,22.841,1.89
0.432,0.357,-0.899,19.836,-75.378,-28.503,22.553,10.048
0.626,0.369,-0.738,41.26,-67.2,-38.452,21.953,19.344
0.802,0.3,-0.625,14.587,-67.505,-38.818,20.373,31.07
0.864,0.356,-0.556,-16.052,-66.772,-23.376,19.427,40.96
0.875,0.287,-0.292,-0.977,-30.945,-12.085,18.766,50.927
0.972,0.216,-0.309,4.7,-29.724,-11.292,16.402,58.819
0.927,0.252,-0.265,1.77,-16.296,-2.502,15.876,63.616
0.949,0.173,-0.206,4.211,-7.751,2.563,13.474,69.15
aX,aY,aZ,gX,gY,gZ,Roll,Pitch
0.949,0.219,-0.213,9.46,-9.399,3.967,12.359,70.917
0.944,0.233,-0.264,-28.748,7.629,-2.136,12.71,71.092
0.903,0.275,-0.499,-15.869,61.951,23.804,12.908,68.368
0.853,0.276,-0.64,-8.057,93.506,22.156,14.105,62.472
0.733,0.349,-0.864,-25.513,118.53,33.325,15.397,53.565
0.414,0.287,-0.929,0.061,135.742,22.278,16.056,42.547
0.098,0.303,-0.829,1.648,90.21,12.939,17.398,31.08
-0.206,0.239,-0.81,8.301,63.354,10.742,18.188,15.989
-0.247,0.188,-0.611,22.949,-8.423,-4.883,17.749,1.031
-0.155,0.312,-0.743,14.526,-56.152,-20.63,18.955,-9.126
0.178,0.437,-0.879,10.62,-109.07,-42.603,20.949,-7.491
0.368,0.385,-0.907,24.048,-107.91,-45.105,22.81,2.435
0.63,0.43,-0.835,11.292,-75.439,-37.17,23.971,15.4
0.8,0.375,-0.597,7.812,-54.626,-34.729,23.287,28.725
0.858,0.29,-0.48,2.563,-32.715,-24.902,20.894,39.838
0.871,0.192,-0.465,-10.498,-24.17,-8.057,18.019,49.444
0.947,0.251,-0.29,-9.216,-31.189,-7.202,15.738,58.37
0.92,0.154,-0.334,5.127,-9.888,1.953,12.729,63.384
aX,aY,aZ,gX,gY,gZ,Roll,Pitch
0.96,0.197,-0.226,9.216,-3.174,4.15,11.42,67.455
0.967,0.154,-0.358,-13.855,16.724,4.211,10.743,69.428
0.94,0.173,-0.448,3.784,63.416,18.738,9.562,68.064
0.816,0.405,-0.585,22.4,77.576,37.598,13.012,63.148
0.634,0.345,-0.857,-6.042,95.581,43.091,14.941,53.402
0.458,0.398,-0.868,-12.451,101.501,39.001,18.439,42.965
0.17,0.406,-0.902,0.366,100.83,35.4,22.107,30.232
-0.074,0.318,-0.832,4.822,80.811,27.832,21.859,17.557
-0.322,0.303,-0.785,-8.545,48.401,10.803,22.77,3.623
-0.407,0.312,-0.639,5.432,10.986,2.991,22.566,-10.458
-0.418,0.358,-0.856,7.08,-23.926,-5.737,21.122,-19.93
-0.214,0.369,-0.843,-2.502,-64.88,-19.287,21.501,-21.828
0.038,0.507,-0.855,25.94,-87.769,-36.743,24.795,-15.759
0.281,0.482,-0.931,1.221,-90.332,-42.969,26.127,-4.599
0.551,0.445,-0.836,13.428,-83.557,-42.358,27.078,9.542
0.715,0.381,-0.724,-1.77,-70.984,-40.466,26.112,22.616
0.82,0.309,-0.597,-11.902,-37.659,-17.09,22.576,34.182
0.854,0.237,-0.467,-20.142,-24.597,-16.907,19.203,44.799
0.892,0.23,-0.438,-22.583,-20.142,-5.127,16.269,52.604
0.91,0.187,-0.365,0.854,-5.371,-2.319,13.718,58.858
aX,aY,aZ,gX,gY,gZ,Roll,Pitch
0.936,0.146,-0.311,9.521,2.319,-0.488,11.509,63.75
0.916,0.278,-0.337,-10.254,5.737,-1.892,12.069,65.347
0.895,0.217,-0.474,26.917,47.974,18.372,11.842,65.036
0.81,0.167,-0.685,9.766,70.19,28.809,11.448,60.905
0.75,0.431,-0.762,-14.221,105.286,44.678,15.083,53.348
0.516,0.442,-0.825,18.311,106.995,57.556,17.265,44.54
0.133,0.303,-0.873,11.963,85.693,46.021,19.27,32.872
-0.15,0.423,-0.864,-12.39,72.937,27.405,24.247,18.71
-0.338,0.46,-0.721,-10.01,57.373,19.104,26.353,2.517
-0.424,0.31,-0.676,16.907,29.48,7.019,24.852,-12.646
-0.39,0.434,-0.654,-10.681,-26.123,-10.925,26.993,-21.31
-0.231,0.422,-0.638,14.648,-78.186,-27.588,28.265,-23.763
0.061,0.58,-0.929,9.399,-112.915,-38.391,29.705,-16.23
0.366,0.517,-0.959,23.499,-88.928,-53.589,31.508,-2.977
0.56,0.43,-0.824,15.747,-66.223,-43.823,29.582,11.041
0.734,0.434,-0.651,-34.607,-48.523,-37.354,27.435,23.862
0.766,0.27,-0.558,-3.967,-30.09,-26.001,23.207,35.383
0.852,0.206,-0.503,-18.25,-34.18,-22.949,19.14,45.441
0.874,0.167,-0.428,0.183,-31.494,2.075,15.541,53.407
0.896,0.161,-0.404,6.897,-2.93,2.563,11.7,58.738
aX,aY,aZ,gX,gY,gZ,Roll,Pitch
0.911,0.192,-0.351,2.014,5.31,0.916,10.506,62.542
0.905,0.359,-0.435,-7.69,22.583,3.601,12.603,62.815
0.831,0.349,-0.598,-0.122,59.631,30.396,14.982,59.59
0.751,0.352,-0.768,11.475,91.431,33.875,17.297,53.77
0.554,0.437,-0.928,5.554,106.018,43.701,20.122,44.337
0.183,0.382,-0.935,-4.15,108.826,47.302,20.912,33.03
-0.091,0.301,-0.767,3.906,89.844,28.503,21.819,20.689
-0.304,0.413,-0.796,-0.244,60.12,18.127,23.996,5.221
-0.466,0.288,-0.608,10.742,28.015,13.123,23.519,-11.254
-0.455,0.336,-0.731,-5.615,-32.471,-8.24,22.784,-22.374
-0.251,0.406,-0.76,18.738,-71.716,-37.598,23.951,-24.52
-0.062,0.375,-0.771,21.79,-88.44,-38.696,24.208,-21.12
0.272,0.414,-0.855,-31.86,-119.141,-43.457,25.869,-8.138
0.552,0.418,-0.88,14.893,-87.708,-57.739,25.992,7.985
0.721,0.388,-0.644,7.08,-40.71,-22.583,24.596,22.78
0.824,0.362,-0.529,-15.808,-35.645,-18.799,22.864,35.591
0.846,0.275,-0.497,-16.663,-20.02,-13.062,20.334,45.122
0.906,0.238,-0.39,-1.343,-32.776,-4.761,17.999,53.768
0.915,0.202,-0.396,13.062,-6.531,2.075,15.316,58.883
aX,aY,aZ,gX,gY,gZ,Roll,Pitch
0.925,0.276,-0.267,21.423,0.183,2.563,14.206,62.89
0.9,0.233,-0.351,-28.748,19.958,-0.854,13.639,65.085
0.882,0.221,-0.486,-8.85,33.142,17.517,13.36,64.018
0.842,0.445,-0.629,9.155,71.594,29.968,16.559,59.464
0.672,0.277,-0.884,10.254,107.422,53.345,16.192,51.438
0.436,0.462,-0.893,-15.991,113.708,48.096,19.131,41.382
0.065,0.407,-0.821,1.77,107.117,41.016,22.686,29.26
-0.131,0.309,-0.782,-9.949,65.125,16.357,22.35,15.812
-0.387,0.465,-0.799,4.883,43.03,9.888,26.505,-0.272
-0.474,0.294,-0.733,17.517,34.79,12.634,24.288,-14.983
-0.414,0.326,-0.578,0.549,-16.663,-8.789,23.443,-23.663
-0.303,0.337,-0.721,16.479,-72.632,-25.024,23.69,-26.488
-0.036,0.513,-0.897,0.122,-93.506,-36.56,24.829,-20.525
0.305,0.494,-0.956,10.498,-97.046,-56.274,27.675,-7.165
0.661,0.503,-0.857,25.391,-93.506,-61.768,27.89,9.143
0.743,0.425,-0.691,22.278,-65.552,-42.786,27.039,23.152
0.82,0.327,-0.561,-16.907,-42.419,-21.179,23.755,35.625
0.876,0.278,-0.468,-9.705,-24.78,-9.521,20.818,45.956
0.908,0.199,-0.412,-13.977,-3.296,-6.775,17.207,53.68
0.902,0.222,-0.33,-22.949,-5.92,2.014,14.634,59.734
aX,aY,aZ,gX,gY,gZ,Roll,Pitch
0.912,0.17,-0.345,20.691,-0.244,4.639,12.492,63.671
0.897,0.25,-0.334,-16.113,15.93,-8.24,12.199,65.477
0.858,0.255,-0.583,-7.812,36.072,17.334,12.92,62.881
0.806,0.307,-0.701,0.916,81.726,32.654,13.826,57.691
0.677,0.287,-0.912,18.433,116.333,45.837,14.979,49.557
0.378,0.509,-0.876,3.113,129.456,51.147,18.319,38.981
0.032,0.34,-0.902,-2.502,99.06,33.875,20.391,27.191
-0.263,0.328,-0.8,-0.549,73.914,23.01,22.217,12.295
-0.456,0.253,-0.695,10.986,50.598,6.775,23.516,-4.926
-0.473,0.311,-0.562,4.7,1.648,0.244,21.196,-19.874
-0.428,0.287,-0.615,8.301,-43.091,-12.085,20.675,-29.002
-0.184,0.555,-0.742,-28.442,-97.9,-30.518,24.859,-27.427
0.104,0.445,-0.952,47.424,-100.952,-36.438,27.766,-16.631
0.51,0.499,-0.919,23.743,-96.863,-37.109,28.955,0.021
0.68,0.339,-0.904,49.683,-84.106,-53.406,26.489,15.612
0.733,0.395,-0.607,-0.61,-33.752,-24.17,23.058,28.226
0.843,0.252,-0.533,-10.132,-38.025,-22.705,20.122,39.848
0.933,0.216,-0.502,-11.78,-53.284,-29.175,16.404,48.562
0.915,0.135,-0.397,18.433,-28.931,2.014,14.053,56.458
0.935,0.165,-0.252,16.785,-7.446,3.967,10.868,62.953
aX,aY,aZ,gX,gY,gZ,Roll,Pitch
0.955,0.193,-0.299,17.212,1.77,2.93,10.032,66.643
0.937,0.305,-0.256,-17.334,7.935,-2.258,11.489,68.882
0.906,0.182,-0.423,8.362,23.01,7.568,12.151,68.207
0.884,0.217,-0.609,1.892,80.994,46.936,12.618,63.663
0.749,0.389,-0.797,-4.211,116.455,43.945,15.097,55.887
0.541,0.483,-0.867,-2.075,121.399,59.143,17.246,45.947
0.113,0.262,-0.967,1.709,109.009,40.894,18.8,33.097
-0.168,0.367,-0.778,-0.549,80.444,13.855,22.483,18.361
-0.413,0.329,-0.823,15.625,56.213,7.446,22.745,1.14
-0.497,0.428,-0.587,4.517,43.213,6.042,22.782,-15.637
-0.506,0.356,-0.567,7.568,-11.597,-0.183,24.964,-26.865
-0.467,0.349,-0.592,27.588,-55.603,-11.963,24.652,-32.508
-0.088,0.52,-0.718,9.155,-96.008,-53.284,29.548,-27.715
0.237,0.6,-0.917,6.897,-103.577,-49.561,32.053,-13.883
0.419,0.529,-0.912,-3.662,-82.397,-44.312,32.451,1.551
0.591,0.489,-0.796,4.456,-58.411,-43.213,31.124,16.28
0.735,0.363,-0.653,1.831,-51.392,-29.968,27.331,27.355
0.797,0.362,-0.537,-40.833,-35.828,-11.292,24.327,36.932
0.866,0.241,-0.45,-11.23,-32.715,-10.986,20.677,46.489
0.894,0.25,-0.387,11.23,-31.799,-12.695,17.468,54.32
0.937,0.211,-0.317,9.216,-22.278,-2.197,15.331,60.25
0.943,0.146,-0.276,18.921,-10.498,0.549,12.232,65.461
aX,aY,aZ,gX,gY,gZ,Roll,Pitch