aX,aY,aZ,gX,gY,gZ,Roll,Pitch
-0.036,0.898,0.264,18.066,1.038,0.183,73.495,-2.181
-0.036,0.93,0.267,-9.338,2.747,0,73.668,-2.149
-0.033,0.953,0.256,16.357,2.075,-0.916,74.072,-2.073
-0.041,0.948,0.249,-0.854,-1.77,-1.77,74.339,-2.151
-0.029,0.95,0.271,2.991,-1.526,-0.305,74.452,-2.019
-0.004,0.9,0.34,15.686,-17.395,-2.991,73.359,-1.563
-0.033,0.934,0.296,3.967,-26.367,-6.409,72.718,-1.557
-0.04,0.908,0.258,7.141,-32.41,-9.766,72.413,-1.564
-0.042,0.926,0.255,4.211,-33.325,-10.498,72.517,-1.781
-0.023,0.939,0.297,4.028,-27.649,-8.667,73.276,-2.042
-0.029,0.935,0.316,5.554,-24.414,-7.141,73.006,-1.983
-0.036,0.895,0.309,20.874,-30.823,-8.606,72.24,-1.917
-0.05,0.908,0.307,9.46,-30.884,-9.521,71.419,-2.031
-0.028,0.907,0.329,7.874,-31.555,-11.108,70.808,-2.126
-0.03,0.925,0.316,5.676,-36.499,-11.78,70.754,-2.153
-0.045,0.956,0.305,4.639,-30.457,-7.812,71.092,-2.251
-0.056,0.934,0.298,-0.183,-24.353,-5.127,71.323,-2.319
-0.058,0.927,0.295,-5.92,-26.001,-7.202,71.817,-2.747
-0.059,0.945,0.273,-7.446,-27.039,-5.676,72.433,-3.16
-0.082,0.959,0.236,-9.583,-29.419,-7.385,73.281,-3.723
-0.066,0.969,0.18,-1.221,-18.677,-3.845,74.989,-3.878
-0.079,0.951,0.187,-1.038,-18.372,-3.113,76.455,-4.179
-0.07,0.971,0.178,-5.798,-19.958,-2.808,77.755,-4.331
-0.083,0.97,0.126,-4.333,-16.357,-2.197,79.231,-4.344
-0.081,0.978,0.117,0.061,-8.118,-0.549,79.975,-4.558
-0.071,0.974,0.133,-2.197,-8.728,-1.648,80.767,-4.434
-0.074,0.972,0.166,-8.545,-12.085,-4.333,80.893,-4.487
-0.073,0.975,0.065,-6.897,-14.954,-2.014,81.728,-4.36
-0.08,0.98,0.047,-0.793,-10.864,-1.16,82.584,-4.348
-0.081,0.985,0.043,0.244,-6.042,-0.61,83.514,-4.49
-0.087,0.984,0.042,2.441,-0.244,0.122,84.516,-4.68
-0.073,0.977,0.074,4.639,2.319,0,84.451,-4.673
-0.072,0.979,0.068,2.686,2.136,0.427,84.375,-4.558
-0.074,0.981,0.067,4.395,2.747,0.183,84.241,-4.457
-0.077,0.966,0.053,12.573,11.047,0.244,84.225,-4.326
-0.071,0.98,0.105,14.648,15.869,0.977,83.941,-4.29
-0.062,0.952,0.166,14.832,14.099,2.563,82.905,-4.159
-0.061,0.972,0.168,9.827,17.151,2.502,81.734,-3.971
-0.056,0.963,0.202,7.019,19.958,4.15,79.892,-3.657
-0.052,0.978,0.25,11.108,18.616,3.601,78.013,-3.357
-0.049,0.953,0.264,7.507,14.404,3.784,76.725,-3.164
-0.056,0.938,0.255,8.85,13.794,4.517,75.438,-3.1
-0.063,0.944,0.245,0.427,18.494,5.859,74.763,-3.195
-0.06,0.959,0.272,7.324,22.827,6.714,74.366,-3.328
-0.054,0.924,0.3,5.859,18.311,6.226,73.753,-3.415
-0.062,0.947,0.28,5.737,20.081,5.798,73.438,-3.487
-0.063,0.926,0.298,-1.343,23.743,6.897,72.642,-3.489
-0.047,0.954,0.287,-2.075,24.658,7.568,72.453,-3.293
-0.037,0.956,0.315,12.695,27.222,8.85,72.42,-3.01
-0.037,0.924,0.372,6.287,19.165,6.836,71.12,-2.649
-0.04,0.889,0.362,28.381,14.832,4.639,70.121,-2.328
-0.048,0.911,0.342,-3.113,12.207,4.578,69.158,-2.358
-0.052,0.933,0.34,2.869,17.822,6.775,68.682,-2.593
-0.045,0.907,0.371,8.179,18.921,7.629,68.594,-2.71
-0.041,0.895,0.386,4.456,15.015,6.165,68.294,-2.721
-0.05,0.903,0.376,0.61,10.376,4.517,67.789,-2.741
-0.048,0.911,0.386,1.709,10.498,4.211,67.055,-2.679
-0.044,0.915,0.373,-2.991,8.118,3.479,67.078,-2.662
-0.052,0.923,0.347,-1.831,12.634,5.005,67.745,-2.814
-0.051,0.915,0.341,5.554,18.799,7.202,68.271,-2.838
-0.037,0.902,0.354,-0.977,16.418,5.92,68.669,-2.687
-0.045,0.923,0.343,0,14.954,5.371,69.107,-2.709
-0.039,0.909,0.368,3.174,14.954,5.676,68.764,-2.517
-0.031,0.925,0.364,2.075,6.409,2.319,68.549,-2.214
-0.056,0.922,0.294,0.854,8.972,3.235,69.437,-2.502
-0.057,0.926,0.306,0.854,14.954,4.456,69.937,-2.674
-0.036,0.929,0.336,0.854,17.456,5.798,70.48,-2.631
-0.029,0.918,0.369,0.793,10.864,3.601,70.374,-2.6
-0.04,0.896,0.28,-1.282,2.319,1.038,70.467,-2.38
-0.042,0.938,0.279,-17.212,13.489,4.944,70.92,-2.164
-0.039,0.967,0.296,-1.953,4.089,0.732,71.649,-2.189
-0.045,0.952,0.245,-0.122,1.648,0.61,73.482,-2.431
-0.026,0.99,0.266,4.639,6.409,2.38,74.078,-2.186
-0.045,0.945,0.229,3.906,-0.122,-0.305,74.782,-2.236
-0.047,0.981,0.213,9.399,-1.404,0.061,75.958,-2.361
aX,aY,aZ,gX,gY,gZ,Roll,Pitch
-0.041,0.954,0.284,5.371,0.183,0.183,75.434,-2.289
-0.038,0.976,0.23,-5.554,2.502,-0.732,75.856,-2.469
-0.029,0.934,0.275,2.747,-1.16,-1.587,75.228,-2.234
-0.043,0.95,0.256,1.526,-2.93,-0.549,74.516,-2.183
-0.038,0.965,0.246,-1.892,-8.179,-1.282,75.09,-2.145
-0.039,0.945,0.262,3.784,-8.606,-1.221,74.525,-2.175
-0.037,0.951,0.278,1.526,-16.296,-2.625,74.533,-2.28
-0.051,0.963,0.254,3.906,-18.25,-3.296,74.6,-2.396
-0.049,0.931,0.24,6.226,-17.273,-3.235,74.526,-2.578
-0.039,0.941,0.267,1.892,-24.536,-4.883,74.438,-2.569
-0.054,0.962,0.251,5.798,-28.564,-5.798,74.815,-2.812
-0.068,0.955,0.253,1.465,-25.635,-5.371,74.743,-3.058
-0.055,0.95,0.233,3.479,-27.771,-5.676,74.904,-3.123
-0.065,0.942,0.207,-1.16,-23.254,-5.31,75.648,-3.514
-0.065,0.962,0.204,-3.052,-21.79,-3.784,76.24,-3.694
-0.07,0.946,0.178,4.578,-20.142,-3.784,77.237,-3.75
-0.071,0.966,0.188,-2.991,-18.372,-3.235,77.827,-3.981
-0.068,0.977,0.167,-9.094,-14.648,-2.197,78.46,-4.001
-0.078,0.961,0.131,-1.709,-16.052,-2.258,79.364,-4.197
-0.07,0.975,0.121,-2.075,-18.677,-2.319,80.178,-4.175
-0.067,0.966,0.07,-5.737,-17.029,-2.136,81.711,-4.142
-0.075,0.984,0.07,-4.272,-11.475,-0.977,82.846,-4.247
-0.069,0.975,0.073,3.54,-11.23,-0.61,83.61,-4.105
-0.067,0.992,0.027,-2.319,-12.512,-1.038,84.641,-4.052
-0.071,0.984,0.052,2.991,-12.085,-0.549,84.784,-4.092
-0.067,0.983,0.034,-0.305,-15.442,-0.732,85.18,-3.983
-0.074,0.979,0.024,-0.732,-18.616,0.061,85.473,-4.064
-0.077,0.992,-0.005,-2.563,-10.742,-0.244,85.527,-4.206
-0.077,0.984,-0.022,1.648,-1.526,0,85.682,-4.295
-0.068,0.979,0.022,2.197,0.305,-0.671,85.673,-4.318
-0.071,0.983,0.01,3.479,1.587,-0.305,85.738,-4.262
-0.074,0.982,0.009,6.897,5.981,-0.732,85.758,-4.234
-0.076,0.982,0.009,8.362,10.742,0.122,85.727,-4.212
-0.083,0.978,0.057,10.193,13.733,1.648,85.41,-4.423
-0.072,0.98,0.086,6.409,13.428,0.854,84.979,-4.441
-0.064,0.981,0.098,9.827,16.479,2.197,84.379,-4.286
-0.06,0.974,0.128,10.071,20.752,2.93,83.263,-4.051
-0.062,0.964,0.153,8.545,20.569,3.235,82.245,-3.746
-0.064,0.963,0.184,8.545,20.264,3.784,80.992,-3.628
-0.056,0.958,0.189,5.127,17.517,3.662,79.754,-3.524
-0.058,0.964,0.198,8.057,19.165,4.333,78.779,-3.502
-0.058,0.961,0.221,7.019,18.738,4.639,77.85,-3.446
-0.054,0.961,0.244,7.629,19.958,5.127,77.06,-3.296
-0.055,0.947,0.253,6.897,17.761,5.005,76.16,-3.285
-0.06,0.946,0.25,5.127,20.447,6.287,75.381,-3.309
-0.061,0.953,0.274,4.761,25.635,7.69,74.622,-3.334
-0.054,0.938,0.317,10.803,24.597,7.568,73.543,-3.331
-0.055,0.929,0.318,0.183,20.325,6.531,72.583,-3.322
-0.047,0.94,0.321,4.822,15.442,4.822,71.628,-3.133
-0.054,0.926,0.308,2.869,13.062,4.211,71.065,-3.056
-0.056,0.931,0.313,0.366,11.475,4.028,71.069,-3.093
-0.057,0.937,0.319,1.221,13,4.517,71.086,-3.121
-0.05,0.92,0.325,-0.305,11.169,3.723,70.928,-3.17
-0.064,0.934,0.288,0.305,14.343,4.944,71.211,-3.31
-0.059,0.93,0.288,2.075,18.127,6.042,71.554,-3.363
-0.047,0.937,0.316,-0.427,19.287,5.981,71.622,-3.219
-0.05,0.926,0.304,2.991,15.198,5.31,71.945,-3.225
-0.058,0.928,0.309,-3.113,16.846,5.371,71.65,-3.131
-0.036,0.932,0.344,2.563,8.423,2.197,70.94,-2.785
-0.05,0.934,0.286,1.099,8.484,2.625,71.324,-2.832
-0.043,0.938,0.333,1.648,3.723,1.038,71.004,-2.715
-0.06,0.937,0.294,0.305,6.104,2.625,71.231,-2.739
-0.047,0.892,0.339,22.461,-1.465,-2.136,71.092,-2.926
aX,aY,aZ,gX,gY,gZ,Roll,Pitch
-0.038,1.004,0.307,10.559,1.038,0.916,71.164,-2.699
-0.063,0.975,0.208,-29.541,3.174,-0.549,72.967,-2.987
-0.036,0.953,0.237,2.258,-0.244,-0.305,73.868,-2.647
-0.021,0.959,0.289,3.906,0,-0.916,74.856,-2.242
-0.026,0.927,0.26,7.446,-8.362,-1.709,75.241,-2.112
-0.023,0.949,0.247,7.08,-17.334,-3.174,74.663,-1.533
-0.02,0.948,0.257,6.226,-19.958,-3.052,74.387,-1.305
-0.036,0.941,0.285,9.399,-24.597,-4.578,74.362,-1.528
-0.051,0.94,0.261,4.028,-24.353,-5.188,74.357,-1.89
-0.038,0.946,0.259,3.967,-22.583,-5.432,74.152,-2.114
-0.052,0.944,0.282,1.038,-22.217,-4.639,73.718,-2.574
-0.042,0.952,0.234,-1.831,-20.935,-4.639,74.451,-2.677
-0.053,0.96,0.229,-5.676,-17.761,-3.906,74.971,-2.696
-0.05,0.949,0.233,-2.075,-20.996,-3.296,75.306,-2.869
-0.055,0.973,0.185,-1.709,-21.057,-3.418,76.744,-2.912
-0.058,0.97,0.171,-3.845,-17.944,-3.052,77.612,-3.134
-0.056,0.977,0.158,-1.526,-9.888,-1.648,78.614,-3.179
-0.053,0.968,0.188,2.319,-11.475,-2.075,79.267,-3.212
-0.052,0.974,0.137,-0.854,-14.343,-2.258,79.93,-3.17
-0.062,0.978,0.14,0.366,-8.972,-1.526,80.35,-3.233
-0.049,0.974,0.152,-1.709,-13.062,-2.075,80.465,-3.143
-0.062,0.973,0.113,-0.366,-13.062,-1.892,81.434,-3.286
-0.062,0.988,0.081,-4.456,-7.874,-1.038,82.142,-3.427
-0.051,0.973,0.132,3.723,-9.155,-1.648,82.299,-3.27
-0.041,0.971,0.097,-3.601,-16.663,-2.136,83.049,-3.156
-0.048,0.985,0.055,-2.869,-10.986,-1.221,83.916,-2.943
-0.044,0.988,0.068,-0.061,-8.24,-0.732,84.209,-2.687
-0.051,0.976,0.011,-3.296,-5.493,-1.282,85.696,-2.686
-0.044,0.98,0.066,1.465,-1.953,-0.366,86.029,-2.718
-0.037,0.967,0.082,0.427,-9.888,-1.16,85.807,-2.575
-0.045,0.99,0.03,-0.671,-10.437,-0.427,86.218,-2.58
-0.041,0.983,0.039,4.639,-8.972,-0.427,86.013,-2.422
-0.044,0.991,0.044,1.282,-7.812,0.061,86.266,-2.428
-0.042,0.987,0.032,2.991,-8.789,-0.183,86.746,-2.491
-0.039,0.986,0.031,2.808,-6.409,0,86.794,-2.419
-0.049,0.984,0,-0.061,-6.042,-0.549,87.028,-2.539
-0.051,0.988,0.018,1.953,0.671,-0.122,87.114,-2.639
-0.041,0.988,0.036,3.601,0.61,-1.221,87.108,-2.614
-0.037,0.989,0.038,7.935,4.761,-0.305,87.09,-2.582
-0.033,0.975,0.056,5.798,5.005,0.366,86.799,-2.362
-0.038,0.984,0.044,7.202,8.24,0.366,86.651,-2.179
-0.034,0.98,0.112,7.69,7.812,0.732,85.8,-2.084
-0.036,0.981,0.094,-0.366,3.296,0.061,85.076,-2.072
-0.031,0.985,0.074,3.052,9.155,0.488,84.868,-2.035
-0.032,0.982,0.109,10.498,12.817,1.526,84.024,-1.941
-0.029,0.97,0.152,7.935,11.719,2.319,83.484,-1.868
-0.029,0.976,0.153,5.066,6.042,1.16,82.693,-1.756
-0.037,0.977,0.145,4.822,8.179,1.892,81.664,-1.838
-0.035,0.97,0.148,7.935,14.465,3.54,81.077,-1.887
-0.036,0.961,0.208,8.667,14.099,8.545,80.244,-1.985
-0.037,0.957,0.208,4.578,8.423,1.709,79.4,-2.107
-0.044,0.966,0.194,3.54,10.864,2.502,78.659,-2.211
-0.04,0.955,0.213,5.188,11.902,2.991,77.689,-2.283
-0.039,0.958,0.218,-0.793,13.733,3.601,77.537,-2.327
-0.041,0.959,0.219,4.211,12.939,3.174,77.378,-2.385
-0.052,0.942,0.237,3.906,11.719,2.808,76.681,-2.502
-0.052,0.961,0.224,0.122,8.728,2.197,76.521,-2.671
-0.053,0.958,0.224,7.507,12.756,2.93,76.395,-2.883
-0.049,0.946,0.257,6.714,12.268,3.296,75.799,-3.003
-0.052,0.948,0.251,3.418,10.437,2.808,75.628,-3.01
-0.052,0.948,0.258,6.287,12.634,3.479,75.11,-3.008
-0.048,0.944,0.273,2.869,12.695,3.845,74.397,-2.937
-0.036,0.928,0.318,5.92,5.371,1.587,73.521,-2.756
-0.048,0.932,0.271,4.7,1.465,0.977,73.183,-2.699
-0.051,0.937,0.287,1.831,0.671,0.244,72.73,-2.695
-0.063,0.949,0.218,7.019,8.24,3.357,73.474,-2.916
-0.05,0.931,0.29,5.554,10.803,3.357,73.833,-3.121
-0.055,0.964,0.306,5.798,11.108,3.296,73.471,-3.188
-0.054,0.927,0.3,4.7,11.597,3.418,73.251,-3.237
-0.039,0.925,0.302,1.343,13.733,4.7,72.049,-2.894
-0.044,0.932,0.33,3.784,16.296,5.31,71.516,-2.801
-0.041,0.928,0.314,4.028,18.372,6.226,71.261,-2.62
-0.041,0.922,0.32,5.859,23.254,7.324,70.99,-2.415
-0.021,0.918,0.338,2.014,23.376,8.057,70.497,-2.14
-0.088,0.937,0.38,1.038,29.297,11.353,69.775,-2.754
-0.024,0.883,0.416,13.062,19.897,7.812,68.202,-2.512
-0.037,0.9,0.298,-8.972,11.414,4.15,68.373,-2.477
-0.03,0.929,0.34,0.549,21.606,6.47,68.389,-2.607
-0.011,0.928,0.399,2.258,3.601,1.648,68.181,-1.485
-0.046,0.939,0.277,-4.211,7.874,2.014,70.337,-1.8
-0.029,0.91,0.35,-5.066,-1.648,-1.282,69.689,-1.668
-0.033,0.918,0.34,19.043,-1.526,1.343,69.628,-1.718
aX,aY,aZ,gX,gY,gZ,Roll,Pitch
-0.033,0.935,0.328,13.306,1.282,0.977,70.606,-2.059
-0.043,0.954,0.302,-21.912,0.916,-1.404,70.345,-2.012
-0.021,0.9,0.33,10.62,2.38,0.61,70.586,-1.913
-0.029,0.941,0.278,-7.874,-4.272,-1.343,71.547,-1.857
-0.025,0.93,0.296,-0.366,-11.23,-1.953,71.975,-1.743
-0.033,0.937,0.278,3.113,-13.306,-1.953,72.241,-1.599
-0.036,0.941,0.266,1.038,-17.09,-3.296,73.295,-1.803
-0.051,0.957,0.26,-0.671,-17.7,-3.479,73.587,-2.11
-0.045,0.956,0.243,-0.549,-16.357,-3.174,74.379,-2.394
-0.046,0.947,0.231,2.075,-14.099,-2.441,75.048,-2.582
-0.052,0.951,0.232,0.549,-13.306,-2.502,75.508,-2.812
-0.047,0.952,0.229,1.282,-15.93,-2.808,75.924,-2.764
-0.054,0.958,0.219,-1.953,-19.043,-3.479,76.238,-2.902
-0.054,0.966,0.201,0.671,-17.761,-3.174,76.684,-3.02
-0.065,0.967,0.181,1.282,-8.423,-2.258,77.391,-3.21
-0.046,0.94,0.223,7.385,-10.559,-2.136,77.437,-3.214
-0.051,0.97,0.194,-1.709,-13.611,-2.625,77.831,-3.166
-0.054,0.957,0.197,-5.737,-12.207,-2.38,77.864,-3.168
-0.05,0.975,0.185,-0.549,-17.212,-2.502,77.895,-2.938
-0.056,0.965,0.16,-1.282,-17.151,-2.38,78.804,-3.074
-0.066,0.984,0.128,-1.526,-10.132,-1.465,79.683,-3.287
-0.065,0.972,0.143,0.549,-3.601,-1.038,80.399,-3.437
-0.06,0.976,0.139,-0.732,-3.113,-0.488,80.953,-3.595
-0.055,0.972,0.136,-0.244,-6.775,-1.099,81.293,-3.567
-0.06,0.974,0.125,0.244,-7.263,-1.099,81.342,-3.491
-0.063,0.979,0.12,-0.671,-7.751,-1.465,81.659,-3.463
-0.061,0.978,0.097,-0.732,-5.005,-0.732,82.211,-3.476
-0.058,0.978,0.124,0.793,-6.165,-1.16,82.348,-3.522
-0.062,1.001,0.11,0.427,-10.376,-1.77,82.576,-3.527
-0.051,0.965,0.152,5.859,-12.39,-1.221,82.228,-3.358
-0.053,0.983,0.105,-0.427,-17.273,-2.258,82.181,-3.233
-0.059,0.976,0.111,-1.892,-12.207,-1.587,82.344,-3.253
-0.066,0.968,0.079,2.38,-10.925,-1.831,82.666,-3.335
-0.061,0.982,0.097,2.991,-2.991,-1.587,83.315,-3.482
-0.048,0.967,0.129,0.427,-7.996,-5.859,83.022,-3.421
-0.039,0.986,0.068,-4.944,-12.695,-1.831,83.723,-3.122
-0.04,0.98,0.078,2.747,-4.883,-1.282,83.933,-2.741
-0.036,0.978,0.093,0.122,-6.958,-0.427,84.141,-2.367
-0.043,0.986,0.047,-0.366,-5.615,-1.038,85.267,-2.29
-0.031,0.982,0.071,2.38,-1.709,0,85.283,-2.174
-0.041,0.985,0.046,4.456,2.563,0.183,85.687,-2.186
-0.04,0.988,0.068,5.798,4.761,0.305,85.96,-2.247
-0.045,0.975,0.08,6.226,6.287,0.183,85.521,-2.279
-0.034,0.982,0.113,8.728,12.817,1.404,84.969,-2.316
-0.028,0.98,0.134,5.127,13.245,1.77,83.86,-2.129
-0.033,0.972,0.14,9.46,11.353,1.648,82.879,-2.037
-0.034,0.971,0.162,10.254,14.465,3.296,81.766,-1.885
-0.039,0.954,0.194,6.287,16.174,5.005,80.542,-1.967
-0.035,0.948,0.235,9.277,11.414,4.333,79.017,-2.078
-0.043,0.947,0.232,5.859,9.644,3.235,77.624,-2.22
-0.049,0.953,0.219,6.226,14.343,4.15,76.733,-2.44
-0.042,0.956,0.251,1.77,18.555,5.371,75.936,-2.478
-0.047,0.946,0.296,9.216,17.517,16.052,75.055,-2.642
-0.05,0.938,0.282,4.517,12.573,3.967,74.317,-2.744
-0.052,0.938,0.284,8.728,19.104,6.165,73.353,-2.779
-0.046,0.934,0.326,7.874,17.212,5.676,72.235,-2.833
-0.048,0.924,0.314,2.869,17.212,6.287,71.895,-2.854
-0.046,0.919,0.322,6.592,18.86,6.775,71.267,-2.801
-0.05,0.992,0.377,-29.358,18.555,5.92,70.279,-2.715
-0.043,0.871,0.367,14.771,13.855,4.944,69.418,-2.699
-0.046,0.912,0.377,2.869,7.874,3.296,68.517,-2.659
-0.047,0.906,0.38,5.127,8.972,3.54,67.672,-2.661
-0.048,0.902,0.381,2.38,8.118,3.418,67.112,-2.697
-0.047,0.903,0.387,2.747,7.019,2.93,67.014,-2.73
-0.046,0.9,0.373,1.465,6.042,2.625,66.992,-2.747
-0.047,0.905,0.356,-5.188,10.62,4.089,67.312,-2.75
-0.042,0.907,0.379,-2.625,12.573,4.517,67.385,-2.653
-0.044,0.911,0.377,1.099,9.827,4.028,67.579,-2.617
-0.04,0.901,0.379,3.174,7.08,2.625,67.519,-2.529
-0.048,0.903,0.359,1.77,7.935,3.113,67.468,-2.555
-0.041,0.911,0.375,-1.038,9.46,3.418,67.542,-2.544
-0.04,0.915,0.365,3.54,8.24,3.357,67.734,-2.486
-0.045,0.911,0.355,2.075,10.01,3.845,68.099,-2.55
-0.038,0.897,0.396,5.859,8.24,2.686,67.574,-2.395
-0.047,0.92,0.351,-0.793,1.282,0.671,67.936,-2.481
-0.045,0.903,0.334,4.639,10.132,3.784,68.276,-2.558
-0.039,0.912,0.361,1.099,11.658,4.395,68.206,-2.478
-0.039,0.933,0.346,-2.38,9.155,3.418,69.084,-2.482
-0.036,0.905,0.371,3.967,12.878,4.761,68.749,-2.326
-0.038,0.914,0.35,-1.343,9.827,3.723,68.604,-2.219
-0.04,0.904,0.36,-4.822,6.775,0.854,68.582,-2.23
-0.033,0.895,0.335,3.845,1.099,0.122,68.526,-2.158
-0.021,0.902,0.35,9.216,2.136,0.427,68.818,-1.938
aX,aY,aZ,gX,gY,gZ,Roll,Pitch
-0.036,0.937,0.277,5.92,0.427,0.427,69.943,-1.92
-0.035,0.964,0.222,-11.23,2.319,-2.258,72.156,-1.842
-0.031,0.964,0.224,-4.578,-1.709,-0.366,74.003,-1.81
-0.033,0.964,0.193,-2.258,-4.639,-1.709,76.411,-1.983
-0.036,0.955,0.234,7.263,-3.54,0.061,77.069,-1.971
-0.037,0.962,0.211,4.883,-7.019,-1.16,77.203,-2.003
-0.033,0.95,0.217,6.042,-8.972,-1.831,77.254,-2.03
-0.036,0.954,0.213,3.662,-11.902,-2.136,76.932,-2.065
-0.039,0.965,0.21,4.456,-9.399,-1.831,77.302,-2.109
-0.048,0.943,0.206,3.113,-8.789,-2.014,77.281,-2.277
-0.04,0.958,0.227,2.747,-9.521,-1.77,77.155,-2.373
-0.048,0.953,0.213,0.122,-10.071,-2.136,77.125,-2.552
-0.046,0.96,0.203,3.418,-3.723,-1.16,77.188,-2.654
-0.028,0.945,0.277,2.625,-12.939,-2.197,76.269,-2.352
-0.035,0.973,0.221,1.587,-21.973,-3.601,76.417,-2.281
-0.059,0.965,0.235,0.366,-17.883,-3.784,76.119,-2.433
-0.061,0.979,0.202,-2.686,-14.587,-3.052,76.148,-2.643
-0.043,0.96,0.247,1.404,-15.625,-2.625,76.563,-2.861
-0.05,0.959,0.242,-0.244,-16.968,-3.357,76.18,-3.073
-0.063,0.936,0.215,5.31,-16.968,-3.967,76.333,-3.162
-0.053,0.97,0.208,-3.235,-15.015,-2.808,76.246,-3.05
-0.045,0.955,0.212,10.254,-18.372,-3.479,76.704,-3.082
-0.058,0.952,0.201,-2.075,-18.127,-3.601,77.212,-3.223
-0.057,0.954,0.208,-2.075,-18.433,-3.113,77.397,-3.109
-0.056,0.976,0.181,-2.075,-16.724,-2.625,77.783,-3.153
-0.055,0.966,0.185,-0.305,-14.648,-2.319,78.141,-3.3
-0.057,0.979,0.158,-2.563,-10.315,-2.197,78.824,-3.262
-0.058,0.968,0.181,3.906,-12.146,-1.343,79.221,-3.279
-0.06,0.97,0.159,-2.014,-11.658,-1.892,79.486,-3.347
-0.061,0.963,0.143,2.441,-11.597,-1.648,80.03,-3.436
-0.063,0.98,0.127,-0.488,-10.986,-1.343,80.41,-3.531
-0.069,0.973,0.138,2.625,-10.864,-1.587,80.925,-3.687
-0.065,0.982,0.109,-2.441,-7.507,-1.465,81.567,-3.756
-0.061,0.98,0.11,-2.502,-8.972,-1.099,82.024,-3.744
-0.066,0.983,0.074,-2.563,-7.507,-0.671,82.668,-3.782
-0.068,0.979,0.083,0.916,-4.822,-0.244,83.353,-3.773
-0.073,0.99,0.057,-1.16,-2.441,-0.793,83.9,-3.874
-0.069,0.98,0.075,-0.305,-3.54,0.061,84.194,-4.001
-0.065,0.98,0.066,-0.061,-3.662,0.061,84.289,-3.994
-0.066,0.981,0.059,-1.404,-8.85,-0.366,84.56,-3.958
-0.078,0.984,0.021,1.648,-5.066,-0.305,84.844,-4.039
-0.075,0.983,0.021,5.737,2.991,-0.427,85.214,-4.129
-0.066,0.98,0.047,7.08,6.47,0.549,85.336,-4.143
-0.07,0.992,0.065,13.977,11.597,0.427,85.25,-4.199
-0.065,0.964,0.136,16.052,18.86,2.441,84.377,-4.032
-0.072,0.955,0.142,-0.671,16.541,1.221,83.017,-4.002
-0.058,0.972,0.153,-0.305,11.78,1.587,81.752,-3.885
-0.058,0.977,0.133,5.981,16.724,2.625,80.92,-3.707
-0.053,0.983,0.163,7.141,21.179,3.54,80.68,-3.516
-0.058,0.958,0.174,8.667,21.973,4.089,80.336,-3.308
-0.047,0.955,0.216,10.437,18.799,4.15,79.489,-3.154
-0.062,0.954,0.201,5.188,16.724,3.723,78.471,-3.22
-0.057,0.959,0.236,5.92,23.437,5.31,77.387,-3.277
-0.052,0.953,0.232,5.371,20.203,5.31,76.596,-3.177
-0.053,0.957,0.251,4.089,21.545,5.493,76.093,-3.26
-0.045,0.941,0.268,6.165,20.081,5.737,75.174,-3.005
-0.056,0.941,0.264,4.639,19.226,5.249,74.722,-2.996
-0.048,0.936,0.282,5.127,21.24,6.47,73.968,-2.938
-0.036,0.932,0.322,9.766,22.278,7.568,72.932,-2.694
-0.049,0.92,0.316,4.211,22.156,7.08,72.176,-2.767
-0.037,0.95,0.347,7.996,17.456,6.042,71.118,-2.47
-0.042,0.917,0.353,5.249,15.503,5.249,70.086,-2.379
-0.043,0.909,0.355,3.296,12.329,5.188,69.511,-2.475
-0.04,0.916,0.368,3.296,9.827,3.906,68.805,-2.325
-0.042,0.912,0.358,2.625,5.798,2.258,68.442,-2.423
-0.044,0.909,0.356,-3.662,10.254,3.235,68.346,-2.466
-0.049,0.924,0.335,-1.587,7.629,2.747,68.678,-2.562
-0.038,0.915,0.361,-4.761,6.531,2.563,68.767,-2.543
-0.04,0.93,0.33,0.671,1.343,0.244,69.241,-2.507
-0.037,0.911,0.342,-0.061,6.226,1.831,69.454,-2.407
-0.039,0.942,0.318,4.333,-0.793,-0.244,69.798,-2.251
aX,aY,aZ,gX,gY,gZ,Roll,Pitch
-0.047,0.927,0.338,9.155,-0.122,0.183,70.159,-2.386
-0.041,0.912,0.333,-20.081,3.845,-1.526,70.026,-2.413
-0.025,0.936,0.331,2.502,-0.854,-0.977,70.323,-2.228
-0.036,0.943,0.29,-0.671,-4.822,-1.587,70.712,-2.183
-0.027,0.937,0.298,-0.427,-13.977,-2.991,71.336,-1.891
-0.037,0.941,0.293,1.526,-9.583,-2.197,72.031,-1.818
-0.04,0.934,0.28,0.061,-15.076,-2.869,72.696,-2.045
-0.047,0.945,0.259,0.366,-13.367,-2.625,73.122,-2.211
-0.046,0.945,0.264,-0.427,-11.78,-2.319,73.594,-2.49
-0.052,0.933,0.266,1.77,-17.212,-3.784,73.899,-2.727
-0.055,0.955,0.22,-3.418,-18.311,-4.028,74.773,-2.936
-0.038,0.96,0.233,-1.709,-14.832,-2.686,75.212,-2.807
-0.056,0.955,0.218,-1.77,-16.052,-2.441,75.851,-2.945
-0.052,0.959,0.188,-5.188,-23.499,-3.906,77.016,-2.937
-0.062,0.968,0.17,-1.892,-21.545,-3.418,77.725,-3.041
-0.058,0.962,0.143,-2.563,-19.653,-2.625,78.887,-3.344
-0.06,0.98,0.127,-3.906,-13.916,-2.014,80.175,-3.395
-0.058,0.977,0.127,-7.446,-23.01,-2.808,81.002,-3.468
-0.057,0.984,0.079,3.357,-22.034,-2.258,82.26,-3.388
-0.055,0.981,0.101,2.869,-16.663,-1.831,82.856,-3.322
-0.062,0.974,0.073,-0.305,-17.822,-1.587,83.507,-3.367
-0.057,0.982,0.074,-1.709,-14.771,-1.16,84.17,-3.351
-0.062,0.977,0.053,2.014,-12.268,-1.526,84.429,-3.43
-0.057,0.986,0.064,1.099,-13.489,-1.221,84.822,-3.463
-0.058,0.982,0.052,4.395,-13.123,-2.747,85.099,-3.392
-0.04,0.987,0.053,-12.146,-14.099,-1.892,85.497,-3.144
-0.04,0.995,0.009,-0.305,-14.465,0.122,86.19,-2.81
-0.04,0.985,-0.009,3.967,-4.028,0.427,87.028,-2.563
-0.042,0.98,-0.007,1.465,-8.362,-0.183,87.575,-2.335
-0.046,0.977,-0.026,9.338,-5.981,-0.366,87.522,-2.428
-0.047,0.979,-0.021,3.418,-5.188,0,87.287,-2.549
-0.044,0.982,-0.01,0.061,-2.808,-0.244,87.232,-2.606
-0.047,0.988,-0.008,3.479,1.343,0,87.163,-2.671
-0.047,0.988,-0.01,4.333,3.54,0.366,87.219,-2.688
-0.047,0.981,0.003,10.681,9.46,-0.366,87.298,-2.678
-0.04,0.994,0.014,3.967,7.08,-0.427,87.386,-2.614
-0.034,0.977,0.034,8.789,7.69,-0.61,87.494,-2.433
-0.029,0.987,0.054,6.165,4.883,-0.122,87.348,-2.169
-0.04,0.993,0.056,10.254,10.132,0.916,86.924,-2.063
-0.03,0.982,0.104,9.216,12.085,1.038,85.913,-1.931
-0.032,0.98,0.101,5.554,9.155,0.977,85.051,-1.902
-0.037,0.98,0.097,2.869,14.465,1.831,84.432,-2.01
-0.034,0.974,0.138,8.24,13.367,2.319,83.299,-1.931
-0.043,0.984,0.106,5.371,22.949,3.174,83.226,-2.115
-0.034,0.967,0.172,15.503,26.062,4.578,82.212,-2.139
-0.038,0.976,0.203,6.592,23.315,6.226,80.715,-2.159
-0.039,0.938,0.25,9.521,13.916,3.113,79.056,-2.238
-0.042,0.958,0.224,2.441,11.353,2.808,77.333,-2.224
-0.043,0.962,0.237,8.789,14.954,4.333,76.391,-2.353
-0.039,0.949,0.258,6.592,15.32,11.169,75.537,-2.376
-0.044,0.934,0.29,2.014,10.132,2.93,74.949,-2.446
-0.056,0.96,0.251,-4.211,11.597,3.54,74.553,-2.641
-0.057,0.947,0.273,6.409,17.7,5.31,73.967,-2.853
-0.047,0.939,0.288,6.409,18.677,5.676,73.496,-2.957
-0.048,0.931,0.301,4.822,14.709,4.578,73.324,-3.013
-0.047,0.935,0.297,2.38,14.648,4.883,72.608,-2.885
-0.043,0.938,0.319,3.967,18.127,5.615,71.972,-2.681
-0.047,0.927,0.321,6.409,17.151,6.042,71.459,-2.691
-0.044,0.921,0.342,5.249,17.212,6.348,70.861,-2.631
-0.045,0.905,0.364,4.333,11.414,4.395,69.809,-2.608
-0.049,0.932,0.331,-0.916,11.23,3.906,69.6,-2.696
-0.046,0.912,0.347,5.798,15.686,5.676,69.175,-2.677
-0.039,0.904,0.369,1.343,12.878,4.761,68.728,-2.613
-0.043,0.91,0.356,0.305,11.963,4.578,68.862,-2.585
-0.033,0.904,0.372,4.639,8.667,3.113,68.188,-2.358
-0.041,0.918,0.362,2.563,7.812,2.686,68.033,-2.276
-0.033,0.917,0.356,2.563,9.583,4.028,68.284,-2.18
-0.039,0.903,0.368,2.38,9.888,3.662,68.099,-2.118
-0.041,0.906,0.357,0.183,7.996,2.869,68.302,-2.224
-0.036,0.903,0.39,7.08,8.606,1.77,67.85,-2.163
-0.052,0.932,0.347,-7.507,14.404,-0.549,68.023,-2.442
0,0.901,0.326,-4.944,14.343,-2.991,68.626,-1.89
-0.02,0.958,0.318,10.376,-4.761,4.456,69.453,-1.571
aX,aY,aZ,gX,gY,gZ,Roll,Pitch
-0.052,0.923,0.298,4.456,0.244,0,70.775,-1.805
-0.028,0.889,0.338,-23.926,1.282,-1.953,70.735,-1.464
-0.032,0.937,0.27,17.517,3.174,1.099,71.643,-1.932
-0.031,0.943,0.276,-0.977,-1.648,-0.977,72.128,-2.111
-0.03,0.925,0.256,1.038,-1.892,-0.793,72.766,-1.795
-0.022,0.935,0.349,7.629,-3.723,-0.305,72.806,-1.697
-0.037,0.934,0.276,3.601,-11.902,-2.563,72.701,-1.764
-0.023,0.931,0.302,5.493,-14.954,-3.845,72.303,-1.648
-0.037,0.947,0.264,5.554,-13.855,-2.808,72.276,-1.736
-0.041,0.936,0.31,4.7,-13.733,-2.563,72.795,-2.011
-0.05,0.942,0.295,2.38,-10.986,-2.563,72.544,-2.193
-0.051,0.941,0.28,3.296,-5.127,-1.648,72.833,-2.606
-0.034,0.875,0.324,7.141,-6.714,-1.892,71.692,-2.589
-0.048,0.94,0.289,-2.441,-12.329,-2.563,71.984,-2.699
-0.049,0.935,0.293,0.061,-12.573,-2.625,71.988,-2.691
-0.049,0.941,0.272,-3.357,-15.747,-3.54,72.102,-2.653
-0.057,0.951,0.248,-1.77,-12.634,-2.625,73.433,-2.956
-0.05,0.951,0.255,-0.977,-12.695,-2.625,73.945,-2.976
-0.048,0.959,0.251,-4.456,-21.851,-4.272,74.615,-2.958
-0.053,0.958,0.21,-6.897,-18.677,-4.089,75.516,-3.025
-0.048,0.977,0.177,5.615,-20.508,-3.54,76.609,-2.887
-0.058,0.968,0.16,-0.977,-13.794,-2.319,77.938,-3.017
-0.047,0.973,0.18,0.244,-9.338,-1.77,78.956,-3.002
-0.048,0.972,0.171,2.075,-13.611,-2.197,79.549,-2.919
-0.058,0.973,0.147,-2.014,-13.733,-2.075,79.909,-3.071
-0.059,0.967,0.139,0.183,-12.329,-1.77,80.199,-3.085
-0.053,0.974,0.141,-1.953,-15.93,-1.892,80.708,-3.166
-0.066,0.971,0.05,-11.78,-11.963,-1.221,82.213,-3.444
-0.058,0.981,0.083,-1.709,-11.108,-0.854,83.039,-3.453
-0.062,0.985,0.061,4.639,-10.986,-0.916,83.998,-3.489
-0.058,0.983,0.069,0.61,-8.24,-1.343,84.767,-3.568
-0.057,0.986,0.076,2.441,-9.705,-1.892,84.599,-3.416
-0.051,0.976,0.056,0.854,-10.498,-2.991,84.954,-3.319
-0.043,0.99,0.049,0.244,-8.545,-1.404,85.268,-3.036
-0.048,0.985,0.064,-0.183,-6.287,-0.122,85.414,-2.887
-0.037,0.972,0.053,-2.014,-8.118,-0.488,85.833,-2.616
-0.048,0.983,0.021,-0.732,-9.216,-0.854,86.252,-2.572
-0.043,0.985,0.048,5.371,-4.883,-0.366,86.25,-2.58
-0.038,0.989,0.06,0.916,-8.789,-0.366,86.397,-2.434
-0.051,0.986,-0.004,-0.977,-7.263,-1.404,86.806,-2.622
-0.042,0.987,0.031,0.671,-4.7,-0.061,86.801,-2.522
-0.039,0.988,0.023,-0.977,-7.141,-0.244,87.072,-2.454
-0.033,0.967,-0.012,5.676,2.502,-0.122,87.544,-2.392
-0.042,0.99,0.021,-0.183,-3.235,0,87.558,-2.26
-0.04,0.982,0.016,-1.587,-7.935,-0.061,87.657,-2.235
-0.045,0.988,-0.035,1.831,-1.343,-0.061,87.672,-2.324
-0.04,0.98,0.007,2.258,0.916,-0.244,87.579,-2.417
-0.052,0.987,-0.03,8.118,7.629,-0.061,87.365,-2.565
-0.037,0.981,0.036,27.832,25.879,1.099,87.45,-2.53
-0.029,0.979,0.117,14.282,19.043,1.404,87.012,-2.302
-0.037,0.969,0.115,5.554,17.151,2.441,85.854,-2.258
-0.026,0.97,0.169,7.812,11.475,2.075,83.34,-1.886
-0.04,0.972,0.132,3.845,10.681,2.075,81.972,-1.925
-0.04,0.973,0.168,8.301,15.32,3.052,81.203,-2.084
-0.038,0.958,0.179,8.179,15.015,3.845,80.268,-2.106
-0.039,0.966,0.191,5.981,17.578,3.723,79.906,-2.289
-0.036,0.973,0.225,13.123,20.386,5.188,78.621,-2.228
-0.036,0.93,0.251,9.094,17.944,6.348,77.349,-2.191
-0.036,0.934,0.258,5.493,15.625,4.272,76.172,-2.161
-0.036,0.953,0.24,-2.502,17.212,5.554,75.444,-2.121
-0.048,0.947,0.259,2.869,24.78,7.935,74.844,-2.303
-0.042,0.951,0.269,5.31,23.621,7.141,74.65,-2.38
-0.048,0.937,0.302,6.714,20.264,6.775,74.016,-2.552
-0.049,0.933,0.308,4.456,13.489,4.395,72.971,-2.735
-0.055,0.936,0.305,3.479,12.573,4.333,72.283,-2.828
-0.049,0.926,0.325,4.089,11.475,3.967,71.397,-2.934
-0.052,0.921,0.319,2.991,10.315,3.784,71.094,-3
-0.054,0.919,0.328,5.981,8.85,3.54,70.748,-3.081
-0.06,0.928,0.306,3.052,12.695,4.15,70.677,-3.167
-0.048,0.928,0.326,-2.197,16.785,5.432,70.678,-3.149
-0.037,0.933,0.362,3.479,12.817,4.761,70.187,-2.91
-0.051,0.911,0.327,1.953,6.287,2.258,70.165,-2.866
-0.059,0.934,0.301,0.305,9.216,2.197,70.262,-2.846
-0.05,0.93,0.309,2.441,12.146,3.662,70.49,-2.879
-0.047,0.94,0.313,-1.587,14.038,4.211,71.166,-3.029
-0.041,0.948,0.316,0.122,14.343,2.686,71.507,-2.86
-0.041,0.92,0.326,0.671,7.141,2.38,71.142,-2.599
-0.052,0.953,0.281,1.831,10.62,3.235,71.627,-2.617
-0.041,0.926,0.305,2.014,12.146,3.418,71.681,-2.54
-0.042,0.938,0.286,-4.272,7.69,2.441,72.037,-2.574
-0.041,0.925,0.286,2.93,4.517,1.221,72.614,-2.579
-0.038,0.941,0.287,7.263,1.831,-0.061,72.511,-2.371
-0.036,0.946,0.316,19.897,-2.563,-0.977,72.45,-2.279
aX,aY,aZ,gX,gY,gZ,Roll,Pitch
-0.046,0.94,0.285,8.362,-0.122,-0.183,72.469,-2.335
-0.038,0.978,0.256,18.066,2.258,-0.61,73.114,-2.271
-0.039,0.946,0.268,-5.188,-8.484,-1.587,73.392,-2.294
-0.039,0.948,0.242,-2.502,-19.043,-3.723,74.417,-2.358
-0.037,0.958,0.217,0,-16.968,-2.869,75.44,-2.233
-0.042,0.959,0.209,1.343,-7.996,-1.526,76.011,-2.31
-0.043,0.954,0.227,2.38,-7.08,-1.709,76.604,-2.372
-0.044,0.948,0.234,3.052,-9.155,-1.953,76.699,-2.443
-0.047,0.951,0.215,0.244,-12.024,-2.258,76.684,-2.595
-0.044,0.96,0.222,1.587,-15.991,-2.869,76.501,-2.614
-0.049,0.966,0.189,-0.854,-13.611,-2.38,77.047,-2.694
-0.048,0.959,0.217,5.615,-8.301,-1.282,77.313,-2.748
-0.053,0.957,0.198,1.77,-10.986,-1.892,77.547,-2.833
-0.055,0.966,0.197,0.183,-8.972,-1.892,77.876,-2.992
-0.056,0.965,0.193,-0.61,-8.484,-1.831,77.79,-3.1
-0.048,0.96,0.201,4.028,-14.282,-2.197,78.012,-3.098
-0.06,0.972,0.148,-0.61,-11.108,-1.953,78.716,-3.186
-0.056,0.968,0.158,-4.639,-9.583,-2.014,79.252,-3.212
-0.061,0.967,0.151,-0.549,-13,-1.953,79.811,-3.286
-0.06,0.954,0.131,-1.343,-12.939,-2.136,80.673,-3.472
-0.06,0.976,0.111,-4.456,-16.235,-2.075,81.175,-3.475
-0.063,0.969,0.099,11.108,-12.939,-1.282,81.912,-3.58
-0.062,0.976,0.11,-0.854,-8.911,-1.404,82.457,-3.585
-0.061,0.973,0.1,-0.488,-9.949,-1.16,82.884,-3.582
-0.059,0.963,0.112,-0.61,-12.207,-0.916,82.848,-3.589
-0.061,0.976,0.065,-2.747,-16.418,-1.526,83.293,-3.548
-0.065,0.98,0.052,-2.197,-12.146,-0.916,83.98,-3.591
-0.061,0.981,0.05,-1.892,-12.268,-0.977,84.558,-3.592
-0.063,0.979,0.044,-0.854,-10.437,-0.366,85.238,-3.638
-0.06,0.981,0.021,-1.709,-11.902,-0.427,85.639,-3.625
-0.064,0.981,0.008,-3.662,-14.221,-1.526,85.96,-3.62
-0.049,0.981,-0.009,0.183,-10.742,-1.709,86.428,-3.446
-0.039,1.003,0.013,2.075,-10.498,-0.488,86.895,-3.066
-0.038,1.012,0.021,-7.08,-22.156,-0.427,87.224,-2.734
-0.045,0.986,-0.079,4.517,-17.395,-2.625,87.431,-2.449
-0.041,0.98,-0.025,2.075,-8.179,-0.183,87.45,-2.34
-0.041,0.991,-0.026,-2.747,-7.629,0.366,87.151,-2.375
-0.043,0.988,-0.04,1.831,-6.226,0.916,86.522,-2.454
-0.046,0.991,-0.048,2.808,-4.944,-0.183,86.816,-2.469
-0.046,0.984,-0.077,3.601,1.892,-0.061,86.257,-2.537
-0.038,0.987,-0.039,3.235,1.709,-0.305,86.133,-2.501
-0.041,0.989,-0.042,8.24,5.554,0.061,86.122,-2.479
-0.035,0.99,-0.023,6.775,7.019,-0.305,86.494,-2.32
-0.039,0.988,0.01,13.916,16.907,-0.183,87.396,-2.217
-0.029,0.964,0.051,13.733,13.306,-0.061,87.899,-2.1
-0.032,0.982,0.053,8.972,12.878,0.854,87.627,-1.965
-0.034,0.98,0.083,7.996,13.855,1.465,86.511,-1.96
-0.028,0.983,0.103,10.254,18.311,2.197,85.387,-1.799
-0.026,0.97,0.143,6.348,13.245,1.587,84.151,-1.747
-0.029,0.98,0.136,2.686,15.015,2.625,83.007,-1.702
-0.033,0.979,0.141,3.174,15.564,2.93,82.194,-1.687
-0.031,0.972,0.143,6.042,14.771,2.93,81.6,-1.737
-0.034,0.964,0.151,3.906,16.296,3.418,81.447,-1.854
-0.033,0.97,0.155,4.028,16.174,2.869,81.144,-1.921
-0.029,0.971,0.169,4.883,16.541,3.296,80.739,-1.866
-0.028,0.958,0.188,2.93,11.78,2.197,80.086,-1.821
-0.037,0.971,0.164,1.038,12.512,2.563,79.915,-1.865
-0.033,0.965,0.189,8.972,15.015,3.296,79.418,-1.857
-0.033,0.964,0.184,2.075,16.296,3.479,79.176,-1.907
-0.034,0.972,0.209,8.24,18.921,9.399,78.906,-1.979
-0.038,0.946,0.226,7.08,17.212,4.578,77.964,-1.994
-0.038,0.956,0.244,4.517,14.648,3.967,77.165,-2.07
-0.049,0.956,0.233,1.404,13.977,3.784,76.422,-2.306
-0.05,0.945,0.255,7.568,14.343,3.906,75.651,-2.557
-0.049,0.947,0.247,3.662,12.512,3.601,75.33,-2.722
-0.049,0.948,0.257,2.991,13.306,3.418,75.092,-2.878
-0.046,0.936,0.285,6.714,10.742,3.174,74.297,-2.831
-0.046,0.926,0.287,0.244,2.014,0.793,73.788,-2.77
-0.063,0.965,0.215,5.554,15.564,3.967,74.275,-2.969
-0.047,0.944,0.26,5.798,21.179,5.737,74.217,-2.945
-0.043,0.941,0.282,3.479,20.386,5.737,74.29,-2.904
-0.044,0.942,0.285,2.808,18.066,5.371,74.375,-2.872
-0.042,0.941,0.291,2.563,14.343,4.333,73.274,-2.559
-0.043,0.938,0.276,2.686,14.343,3.662,73.039,-2.506
-0.046,0.931,0.278,5.615,14.771,4.395,73.049,-2.553
-0.033,0.939,0.296,3.113,15.564,4.944,72.909,-2.392
-0.04,0.941,0.304,-1.16,0.427,-0.061,72.73,-2.372
-0.042,0.93,0.302,1.892,0.916,0.061,72.339,-2.347
-0.04,0.935,0.298,2.38,0.183,-0.183,72.086,-2.255
-0.038,0.942,0.343,16.907,-3.601,3.174,71.45,-2.312
aX,aY,aZ,gX,gY,gZ,Roll,Pitch
-0.01,1.022,0.16,7.568,-1.282,-1.038,73.82,-1.861
-0.049,0.954,0.201,-13,2.258,-0.427,75.286,-1.975
-0.042,1.001,0.219,7.08,2.625,0.488,76.608,-1.978
-0.046,0.974,0.14,-1.282,-3.357,-2.136,79.475,-2.096
-0.04,0.941,0.187,13.245,0.183,-0.305,78.791,-2.567
-0.019,0.941,0.251,1.587,-10.986,-1.892,78.137,-2.131
-0.031,0.963,0.199,4.944,-25.208,-3.479,78.33,-2.004
-0.051,0.96,0.199,6.836,-22.888,-3.174,77.433,-2.088
-0.053,0.948,0.204,3.54,-14.709,-2.502,77.191,-2.266
-0.053,0.964,0.203,2.93,-6.47,-1.709,77.845,-2.76
-0.051,0.951,0.225,2.197,-2.502,-0.488,77.376,-3.048
-0.039,0.95,0.264,7.263,-8.667,-1.77,76.489,-2.857
-0.041,0.941,0.253,6.775,-19.592,-3.174,75.81,-2.686
-0.054,0.943,0.229,3.906,-22.827,-4.211,75.372,-2.696
-0.068,0.95,0.202,-0.916,-16.785,-3.479,75.639,-2.958
-0.054,0.957,0.231,4.883,-2.563,-0.61,76.064,-3.192
-0.045,0.94,0.264,2.625,-11.841,-2.441,75.901,-3.252
-0.05,0.961,0.23,-2.869,-18.494,-3.174,75.96,-3.19
-0.06,0.959,0.167,-0.244,-14.954,-2.869,76.499,-3.07
-0.063,0.956,0.172,4.822,-3.967,-1.099,77.287,-3.208
-0.04,0.941,0.259,4.272,-12.146,-2.319,77.374,-3.125
-0.052,0.961,0.184,-2.93,-24.536,-4.456,77.997,-3.158
-0.072,0.962,0.163,3.723,-21.179,-4.578,78.012,-3.331
-0.052,0.964,0.172,5.249,-16.052,-2.563,78.078,-3.159
-0.049,0.97,0.188,2.258,-12.756,-2.258,79.104,-3.288
-0.055,0.954,0.184,0.427,-18.433,-3.662,79.074,-3.335
-0.035,0.963,0.135,-3.784,-15.015,-2.38,79.628,-2.801
-0.036,0.989,0.115,-2.93,-4.822,-1.526,80.537,-2.559
-0.006,0.968,0.172,2.441,-4.883,-1.16,80.913,-1.924
-0.031,0.963,0.129,-3.601,-9.827,-0.977,81.789,-1.573
-0.032,0.977,0.108,-2.625,-11.841,-1.77,82.204,-1.513
-0.032,0.987,0.089,-8.301,-12.756,-1.953,82.578,-1.455
-0.033,0.989,0.077,3.296,-9.827,-1.038,83.843,-1.845
-0.031,0.995,0.067,-5.798,-7.324,-0.549,84.735,-1.83
-0.031,0.981,0.049,1.282,-11.23,-0.427,85.524,-1.823
-0.037,0.978,0.029,-4.211,-7.996,0.183,86.249,-1.912
-0.039,0.987,0.029,0.061,-7.202,-0.427,86.771,-2.001
-0.036,0.988,0.021,1.526,-10.437,-0.977,87.194,-2.087
-0.039,0.983,-0.006,0.854,-7.446,-0.366,87.552,-2.2
-0.039,0.98,-0.014,1.648,-1.099,-0.061,87.73,-2.226
-0.033,0.986,0.018,3.784,2.014,-0.122,87.837,-2.145
-0.04,0.983,0.021,5.31,2.747,0.305,87.777,-2.204
-0.04,0.987,0.016,3.296,1.709,0.061,87.702,-2.218
-0.05,0.998,0.018,10.315,9.216,0.061,87.406,-2.369
-0.036,0.986,0.064,10.62,12.756,0.854,87.03,-2.418
-0.033,0.973,0.088,10.132,10.376,1.038,86.448,-2.323
-0.028,0.972,0.101,11.414,15.869,2.319,85.519,-2.148
-0.03,0.967,0.14,6.531,12.817,1.953,83.963,-1.856
-0.02,0.982,0.157,7.141,13.672,2.258,82.713,-1.618
-0.029,0.966,0.155,9.583,15.93,3.235,81.755,-1.553
-0.024,0.96,0.21,10.132,15.808,3.296,80.182,-1.499
-0.035,0.961,0.215,5.615,9.583,1.953,79.091,-1.578
-0.036,0.963,0.196,1.587,12.695,3.357,78.449,-1.817
-0.031,0.96,0.232,7.08,15.381,3.662,77.345,-1.847
-0.033,0.953,0.241,7.446,13.55,3.845,76.871,-1.983
-0.035,0.957,0.244,2.258,15.564,4.15,76.456,-1.983
-0.032,0.96,0.25,4.15,18.738,4.944,75.705,-1.908
-0.031,0.951,0.268,5.432,18.127,5.127,75.166,-1.908
-0.034,0.944,0.269,5.92,18.311,5.554,74.74,-1.91
-0.032,0.935,0.272,3.113,18.005,5.798,74.264,-1.867
-0.035,0.937,0.285,-1.77,18.799,7.69,73.678,-1.921
-0.044,0.927,0.299,3.906,17.517,9.46,73.131,-2.118
-0.034,0.919,0.352,12.39,10.071,2.686,71.875,-2.123
-0.049,0.942,0.288,-2.38,0.854,0.977,71.659,-2.362
-0.051,0.942,0.27,4.456,14.16,4.761,71.867,-2.589
-0.044,0.937,0.305,5.92,17.883,6.104,71.829,-2.582
-0.049,0.927,0.322,4.028,16.357,5.615,72.234,-2.803
-0.052,0.924,0.316,3.967,17.273,5.92,71.757,-2.864
-0.047,0.922,0.342,7.202,17.578,6.592,70.68,-2.804
-0.049,0.919,0.345,3.357,14.709,5.432,70.032,-2.878
-0.052,0.914,0.356,7.629,16.174,5.92,69.502,-2.921
-0.046,0.903,0.363,0.793,10.864,4.639,68.771,-2.823
-0.051,0.911,0.365,2.869,10.864,4.211,68.391,-2.89
-0.04,0.902,0.39,0,7.935,2.747,67.71,-2.763
-0.052,0.911,0.365,2.93,2.075,0.305,67.575,-2.768
-0.038,0.862,0.38,10.681,2.563,2.502,67.133,-2.684
-0.053,0.908,0.365,-0.793,0.916,-0.305,67.127,-2.708
-0.068,0.9,0.406,29.663,-2.991,-0.061,66.858,-3.117
aX,aY,aZ,gX,gY,gZ,Roll,Pitch
-0.063,0.955,0.296,7.874,1.099,0.427,68.013,-3.255
-0.08,1.078,0.266,-26.062,-1.038,-2.319,70.527,-3.71
-0.038,0.922,0.295,-0.061,-2.502,-2.014,71.532,-3.52
-0.039,0.951,0.247,-0.793,-5.432,-2.441,73.93,-3.101
-0.04,0.941,0.257,12.268,2.014,0.061,74.453,-2.804
-0.034,0.897,0.366,32.288,-7.019,-0.305,72.439,-2.232
-0.034,0.94,0.286,-3.296,-19.104,-5.066,72.654,-2.159
-0.038,0.936,0.281,5.005,-17.883,-4.395,72.115,-2.147
-0.038,0.933,0.292,4.395,-20.508,-4.639,71.598,-2.11
-0.051,0.949,0.275,1.099,-18.372,-4.822,73.058,-2.344
-0.046,0.918,0.292,4.761,-17.273,-3.906,72.86,-2.525
-0.05,0.95,0.282,-5.005,-17.944,-4.761,72.877,-2.696
-0.054,0.958,0.247,-0.732,-13.367,-2.808,73.567,-2.923
-0.046,0.952,0.274,3.845,-8.179,-1.892,73.604,-2.852
-0.049,0.94,0.271,0.854,-12.756,-2.625,73.961,-2.892
-0.054,0.945,0.249,0.732,-15.442,-3.235,74.389,-2.957
-0.066,0.958,0.222,0.854,-13.062,-2.319,74.699,-3.139
-0.05,0.947,0.244,3.845,-12.634,-2.625,75.082,-3.199
-0.045,0.946,0.237,-1.038,-17.151,-3.906,75.601,-3.133
-0.059,0.964,0.199,-1.465,-15.686,-2.625,76.339,-3.2
-0.057,0.969,0.201,2.136,-11.169,-2.319,76.7,-3.056
-0.051,0.951,0.227,7.69,-12.085,-2.686,76.938,-3.082
-0.055,0.956,0.196,1.038,-18.616,-3.479,77.498,-3.227
-0.034,0.969,0.173,-3.967,-15.991,-4.761,77.96,-2.872
-0.036,0.97,0.155,-3.113,-11.658,-2.197,78.671,-2.584
-0.033,0.963,0.135,-2.014,-12.939,-2.136,80.051,-2.314
-0.032,0.98,0.143,2.075,-7.69,-1.404,80.92,-1.98
-0.026,0.965,0.167,0.61,-14.771,-2.136,81.015,-1.867
-0.032,0.98,0.114,2.93,-15.625,-2.075,81.628,-1.796
-0.038,0.979,0.113,0.183,-9.033,-1.221,81.948,-1.861
-0.032,0.97,0.121,3.052,-10.803,-1.526,82.234,-1.864
-0.034,0.977,0.115,0.488,-10.681,-1.343,82.961,-1.968
-0.042,0.983,0.124,4.944,-12.329,-1.77,82.783,-2.11
-0.04,0.986,0.079,-1.099,-8.85,-1.526,83.259,-2.14
-0.041,0.99,0.089,2.197,0.549,0,83.681,-2.263
-0.033,0.979,0.107,0.916,1.282,0.305,83.796,-2.255
-0.037,0.987,0.098,5.554,5.615,0.61,84.18,-2.185
-0.03,0.975,0.126,7.141,5.127,0.061,83.569,-2.049
-0.036,0.985,0.122,11.963,10.803,1.221,83.135,-1.977
-0.03,0.968,0.161,10.681,9.888,1.709,82.38,-1.928
-0.033,0.977,0.155,6.836,14.404,2.625,81.568,-1.871
-0.031,0.968,0.195,10.437,18.86,4.211,80.586,-1.88
-0.024,0.955,0.223,8.179,18.25,4.7,79.119,-1.707
-0.023,0.946,0.247,3.967,15.503,4.578,77.845,-1.613
-0.03,0.963,0.243,-0.427,17.151,4.578,76.571,-1.564
-0.026,0.955,0.26,-0.854,16.052,4.395,75.621,-1.491
-0.026,0.96,0.221,2.014,20.63,5.005,75.66,-1.521
-0.025,0.957,0.247,7.385,24.414,6.409,75.699,-1.547
-0.022,0.942,0.263,5.615,19.348,5.493,75.348,-1.446
-0.028,0.968,0.254,0.732,23.315,7.08,75.478,-1.467
-0.023,0.938,0.304,9.705,22.461,9.888,74.251,-1.429
-0.037,0.938,0.282,-0.854,17.151,8.118,73.677,-1.605
-0.04,0.938,0.287,4.639,21.851,9.033,73.305,-1.855
-0.051,0.925,0.323,6.348,21.973,15.381,72.135,-2.201
-0.044,0.923,0.338,4.578,18.921,6.287,71.56,-2.508
-0.045,0.919,0.32,3.845,17.273,6.287,70.934,-2.62
-0.049,0.926,0.349,4.089,15.564,6.409,70.019,-2.751
-0.047,0.921,0.357,8.728,16.968,6.47,69.544,-2.685
-0.043,0.907,0.379,8.85,14.038,7.69,68.905,-2.66
-0.051,0.901,0.389,1.465,11.169,4.822,67.87,-2.751
-0.053,0.895,0.373,-1.77,16.907,7.141,67.37,-2.823
-0.041,0.891,0.414,5.188,6.042,2.625,66.445,-2.745
-0.052,0.91,0.371,-0.183,5.371,2.136,66.563,-2.886
-0.035,0.859,0.433,5.066,1.282,-0.977,65.748,-2.668
-0.058,0.905,0.376,-2.014,-2.563,-0.427,65.76,-2.733
aX,aY,aZ,gX,gY,gZ,Roll,Pitch
-0.046,0.961,0.285,12.207,-0.916,-1.16,67.876,-2.796
-0.062,0.927,0.31,-11.78,5.554,-2.258,68.767,-2.937
-0.016,0.922,0.316,-2.686,-2.93,-1.77,70.713,-2.647
-0.016,0.932,0.305,-8.972,-24.658,-5.371,71.874,-2.04
-0.032,0.95,0.25,-0.122,-27.344,-5.859,72.333,-1.842
-0.037,0.963,0.243,3.479,-25.208,-5.554,73.452,-1.474
-0.041,0.954,0.235,4.395,-22.644,-4.333,74.671,-1.822
-0.049,0.947,0.21,13.977,-15.686,-2.808,75.996,-2.308
-0.047,0.938,0.258,0.305,-9.155,-2.319,75.798,-2.532
-0.049,0.942,0.261,0.488,-9.521,-2.258,75.441,-2.728
-0.047,0.956,0.232,-3.479,-10.559,-2.502,75.484,-2.827
-0.042,0.952,0.252,3.357,-12.146,-2.258,74.938,-2.711
-0.047,0.95,0.229,0.366,-18.372,-2.869,75.397,-2.719
-0.049,0.969,0.207,2.686,-17.334,-2.747,76.235,-2.697
-0.054,0.971,0.235,5.127,-14.954,-2.686,76.218,-2.784
-0.047,0.948,0.243,5.188,-15.381,-3.113,76.312,-2.85
-0.053,0.955,0.242,6.104,-17.517,-3.906,76.128,-2.927
-0.018,0.961,0.217,-0.671,-22.644,-26.184,76.049,-2.487
-0.044,0.952,0.179,-5.005,-26.855,-9.583,76.789,-2.353
-0.032,0.959,0.198,7.08,-13.977,-3.174,77.489,-2.137
-0.021,0.957,0.24,0.793,-31.25,-2.747,77.6,-1.673
-0.024,0.972,0.191,-4.761,-20.813,-3.967,77.985,-1.76
-0.022,0.981,0.164,-4.639,-20.691,-4.395,78.327,-1.443
-0.036,0.962,0.16,0.671,-14.709,-2.197,78.868,-1.504
-0.031,0.976,0.127,1.221,-13.489,-2.075,80.485,-1.644
-0.042,0.959,0.138,8.728,-7.751,-1.526,81.154,-1.909
-0.029,0.969,0.144,-6.042,-11.475,-0.793,81.384,-2.007
-0.04,0.971,0.108,-5.981,-9.521,-1.953,82.111,-2.074
-0.034,0.982,0.099,-4.211,-6.958,-0.916,82.504,-2.116
-0.033,0.991,0.092,-4.395,-8.423,-0.977,83.241,-1.976
-0.041,0.992,0.037,-0.183,-1.709,0,84.666,-2.15
-0.029,0.98,0.073,14.282,6.348,0.244,85.216,-1.977
-0.04,0.982,0.106,11.108,9.338,1.221,85.086,-2.069
-0.035,0.99,0.135,12.878,21.423,3.174,84.505,-2.09
-0.021,0.962,0.192,11.963,16.235,3.052,82.422,-1.807
-0.028,0.955,0.196,10.986,12.451,2.625,80.644,-1.794
-0.034,0.969,0.179,6.775,15.991,3.296,79.594,-1.707
-0.028,0.958,0.219,11.23,23.193,5.798,78.336,-1.615
-0.018,0.952,0.272,8.667,21.423,6.226,77.175,-1.567
-0.024,0.936,0.298,9.338,16.174,4.944,75.669,-1.518
-0.021,0.94,0.297,5.798,14.343,4.761,73.929,-1.317
-0.024,0.943,0.302,4.028,15.259,5.066,72.716,-1.259
-0.024,0.931,0.306,8.24,19.348,6.897,72.153,-1.351
-0.02,0.918,0.348,6.897,17.883,6.836,71.395,-1.284
-0.025,0.915,0.357,5.859,17.456,6.409,70.448,-1.346
-0.02,0.913,0.367,5.005,12.085,4.883,69.416,-1.291
-0.027,0.926,0.338,1.648,12.451,5.005,68.952,-1.332
-0.03,0.918,0.334,2.075,18.372,7.751,69.134,-1.483
-0.025,0.9,0.361,2.93,18.188,9.216,69.002,-1.498
-0.035,0.916,0.35,-1.282,19.775,8.423,69.234,-1.714
-0.034,0.902,0.377,1.099,20.813,8.85,68.575,-1.825
-0.026,0.907,0.379,-0.183,13.245,16.296,67.91,-1.768
-0.046,0.912,0.353,2.563,14.038,5.493,68.055,-2.069
-0.036,0.906,0.382,6.409,13.794,5.859,67.562,-2.091
-0.047,0.919,0.345,0.488,14.282,6.042,68.053,-2.274
-0.039,0.915,0.346,1.404,22.766,9.155,68.516,-2.464
-0.035,0.894,0.392,2.686,22.278,9.155,67.909,-2.294
-0.042,0.903,0.38,2.136,18.494,7.568,67.916,-2.375
-0.025,0.902,0.416,-0.488,10.864,3.235,66.898,-2.046
-0.044,0.922,0.357,-2.625,1.404,1.099,66.788,-2.106
-0.047,0.91,0.357,3.784,9.399,3.54,67.337,-2.292
-0.043,0.923,0.358,-0.427,0.488,-0.244,67.741,-2.3
-0.056,0.903,0.393,17.822,-1.892,1.892,68.018,-2.756
aX,aY,aZ,gX,gY,gZ,Roll,Pitch
-0.026,0.868,0.415,9.46,0.549,0.305,66.974,-2.519
-0.032,0.866,0.425,-13.367,1.892,-0.244,65.828,-2.309
-0.023,0.903,0.369,1.953,0.549,-0.122,65.579,-2.022
-0.031,0.93,0.323,-9.705,-6.226,-2.197,66.703,-1.652
-0.033,0.898,0.365,4.517,-14.038,-2.319,67.548,-1.75
-0.044,0.936,0.308,-1.709,-15.259,-3.967,69.5,-1.91
-0.041,0.918,0.307,3.113,-13.55,-3.601,70.406,-2.183
-0.047,0.945,0.294,-0.916,-12.268,-2.747,70.852,-2.422
-0.057,0.936,0.291,2.075,-5.249,-1.709,71.991,-2.771
-0.04,0.922,0.327,2.686,-8.667,-2.38,71.68,-2.714
-0.049,0.941,0.311,-0.732,-15.442,-4.028,71.707,-2.819
-0.041,0.948,0.291,2.502,-19.836,-5.127,71.771,-2.731
-0.054,0.929,0.303,-0.122,-19.104,-5.249,71.588,-2.689
-0.046,0.94,0.291,-4.15,-23.132,-5.737,72.138,-2.781
-0.052,0.936,0.258,-1.77,-23.437,-5.798,72.833,-2.834
-0.058,0.948,0.246,-1.953,-17.029,-3.662,73.408,-3.082
-0.058,0.958,0.24,-2.319,-16.052,-3.479,74.371,-3.123
-0.06,0.95,0.24,3.296,-15.808,-3.235,75.071,-3.319
-0.054,0.931,0.246,6.714,-18.555,-4.272,75.217,-3.358
-0.032,0.941,0.263,2.319,-25.574,-6.775,75.041,-2.984
-0.022,0.963,0.209,-3.906,-23.132,-5.066,75.592,-2.469
-0.031,0.956,0.201,-1.221,-25.024,-4.15,76.225,-2.05
-0.033,0.976,0.143,-6.897,-22.522,-3.662,77.872,-1.73
-0.035,0.969,0.146,-2.38,-18.188,-2.319,79.594,-1.775
-0.043,0.977,0.1,-0.366,-13.977,-2.075,81.105,-2.078
-0.037,0.985,0.091,0.122,-2.319,-0.366,82.68,-2.156
-0.032,0.961,0.148,-2.136,-11.536,-1.709,82.589,-2.146
-0.055,0.989,0.029,-5.005,-7.629,-1.648,84.12,-2.423
-0.036,0.969,0.129,1.953,-0.183,-0.488,83.759,-2.331
-0.038,0.971,0.103,-0.977,-4.089,-0.916,83.573,-2.358
-0.046,0.984,0.053,-0.61,-0.732,0.061,84.757,-2.56
-0.045,0.98,0.077,8.789,7.263,1.221,84.177,-2.421
-0.029,0.974,0.082,25.146,25.696,2.869,84.837,-2.315
-0.029,0.95,0.207,12.573,23.56,4.272,83.465,-2.186
-0.025,0.963,0.211,2.136,21.423,4.456,81.309,-1.872
-0.031,0.963,0.251,4.089,19.226,4.639,78.837,-1.663
-0.021,0.959,0.238,5.859,17.273,4.395,76.603,-1.531
-0.036,0.951,0.245,4.761,18.982,4.761,76.051,-1.627
-0.025,0.957,0.263,3.052,17.334,4.578,75.301,-1.633
-0.029,0.956,0.262,5.249,16.846,4.456,75.133,-1.603
-0.027,0.952,0.252,5.249,19.165,5.554,74.905,-1.701
-0.028,0.942,0.271,7.751,19.836,6.042,74.521,-1.587
-0.026,0.935,0.285,4.578,17.822,5.676,74.134,-1.609
-0.025,0.941,0.281,4.822,16.296,6.226,73.804,-1.552
-0.04,0.944,0.273,3.418,17.456,9.644,73.459,-1.731
-0.037,0.94,0.295,5.493,17.822,5.798,73.108,-1.859
-0.033,0.927,0.294,10.437,12.695,4.15,72.931,-1.957
-0.05,0.94,0.266,1.587,17.029,6.042,73.103,-2.326
-0.024,0.967,0.286,5.371,22.034,8.728,73.05,-2.087
-0.056,0.952,0.32,6.226,19.47,5.188,72.719,-2.352
-0.048,0.931,0.33,7.324,17.517,6.348,72.21,-2.555
-0.047,0.908,0.352,1.343,16.907,6.531,70.896,-2.516
-0.044,0.912,0.339,-7.507,14.771,5.737,69.887,-2.824
-0.047,0.922,0.334,-1.587,15.32,5.554,69.57,-2.712
-0.04,0.92,0.364,6.958,11.047,3.357,69.071,-2.591
-0.045,0.911,0.348,4.517,11.108,3.479,69.15,-2.564
-0.037,0.906,0.368,3.662,7.202,2.563,68.731,-2.454
-0.045,0.919,0.353,1.526,1.282,0,68.458,-2.419
-0.041,0.901,0.364,4.944,0.793,-0.488,68.355,-2.449
-0.039,0.894,0.362,11.963,-1.282,1.099,68.076,-2.368
aX,aY,aZ,gX,gY,gZ,Roll,Pitch
-0.046,0.887,0.388,8.85,0.305,0.366,67.693,-2.509
-0.004,0.956,0.342,-4.883,2.808,-1.221,68.104,-1.897
-0.042,0.879,0.373,-3.906,-2.808,-0.427,67.86,-1.923
-0.034,0.879,0.329,9.583,-11.597,-2.075,68.239,-1.857
-0.044,0.929,0.32,-0.122,-13.916,-3.54,69.396,-1.825
-0.046,0.929,0.318,3.113,-14.648,-3.601,69.529,-2.456
-0.052,0.929,0.31,1.404,-14.526,-3.723,70.638,-2.587
-0.046,0.933,0.308,-0.122,-16.357,-4.456,71.159,-2.736
-0.05,0.931,0.294,-1.099,-17.456,-4.822,71.512,-2.821
-0.058,0.944,0.262,-0.183,-14.954,-3.601,72.311,-2.998
-0.042,0.946,0.285,2.563,-12.329,-3.052,72.754,-2.85
-0.059,0.933,0.287,-5.432,-20.081,-5.005,73.016,-3.047
-0.043,0.951,0.246,2.197,-15.625,-3.906,73.77,-2.945
-0.062,0.957,0.251,-3.235,-18.677,-4.578,73.973,-2.998
-0.064,0.96,0.231,4.822,-13.123,-2.869,74.7,-3.305
-0.044,0.958,0.269,-2.869,-16.113,-3.357,75.074,-3.079
-0.041,0.968,0.268,2.747,-24.536,-4.944,74.837,-3.036
-0.062,0.957,0.198,3.906,-25.208,-5.371,75.558,-3.042
-0.044,0.967,0.191,-1.831,-12.878,-5.981,76.192,-2.765
-0.03,0.965,0.215,-3.601,-15.137,-3.113,77.007,-2.563
-0.04,0.964,0.189,-0.854,-13.611,-2.441,78.098,-2.562
-0.035,0.945,0.206,1.099,-18.311,-4.028,78.018,-2.187
-0.039,0.969,0.156,-4.333,-18.921,-3.052,78.529,-2.115
-0.036,0.959,0.169,-8.545,-14.893,-2.441,79.149,-2.209
-0.032,0.974,0.129,-6.836,-18.982,-2.38,80.044,-2.088
-0.04,0.984,0.094,-2.563,-13.977,-1.648,81.692,-2.137
-0.03,0.972,0.089,-9.888,-14.343,-1.526,82.668,-2.012
-0.032,0.988,0.041,-6.592,-14.709,-0.854,84.495,-1.946
-0.037,0.984,0.033,-2.197,-12.695,-0.977,85.745,-2.023
-0.044,0.986,0.016,-0.488,-6.409,-0.427,86.665,-2.096
-0.033,0.984,0.038,7.507,-7.446,-0.671,87.183,-2.126
-0.039,0.985,0.008,0.183,-8.24,0.061,87.374,-2.234
-0.032,0.983,0.031,10.62,3.54,0.366,87.451,-2.16
-0.039,0.985,0.018,3.784,2.136,-0.061,87.499,-2.079
-0.041,0.991,0.014,3.235,2.197,0.244,87.572,-2.194
-0.052,0.998,0,4.456,15.442,-0.183,87.462,-2.364
-0.024,0.969,0.093,17.883,24.475,2.014,87.099,-2.262
-0.027,0.966,0.145,8.85,15.625,1.953,85.769,-2.099
-0.031,0.987,0.119,5.432,17.456,2.747,84.441,-1.953
-0.029,0.97,0.161,11.719,20.203,3.662,82.25,-1.633
-0.031,0.976,0.184,7.446,19.714,3.723,80.96,-1.717
-0.032,0.966,0.21,5.798,20.691,4.272,80.032,-1.79
-0.026,0.957,0.214,1.587,17.212,4.028,78.637,-1.721
-0.022,0.955,0.228,7.202,13.184,3.235,77.662,-1.621
-0.036,0.945,0.203,1.526,11.597,3.113,77.287,-1.703
-0.036,0.946,0.186,0.183,16.602,3.967,77.56,-1.764
-0.03,0.956,0.21,4.395,20.508,5.066,77.596,-1.827
-0.027,0.958,0.23,0.916,19.47,5.127,77.575,-1.892
-0.026,0.958,0.239,6.287,17.212,4.578,77.132,-1.748
-0.022,0.953,0.24,6.47,18.738,5.188,76.42,-1.536
-0.032,0.951,0.234,3.845,18.555,5.554,76.058,-1.562
-0.034,0.948,0.239,5.066,23.071,10.254,75.884,-1.668
-0.041,0.935,0.306,8.728,20.325,6.653,74.823,-1.886
-0.046,0.933,0.273,3.052,13.489,4.272,74.233,-2.24
-0.04,0.939,0.29,2.502,13.245,4.272,73.393,-2.361
-0.047,0.943,0.275,1.648,16.785,5.066,72.842,-2.541
-0.041,0.933,0.304,8.301,17.822,6.958,72.869,-2.54
-0.039,0.925,0.325,2.136,15.869,5.066,72.139,-2.434
-0.036,0.92,0.321,2.747,8.24,2.93,71.641,-2.38
-0.052,0.933,0.291,0.732,7.812,2.441,71.369,-2.469
-0.048,0.931,0.303,-0.916,11.719,3.845,71.366,-2.564
-0.043,0.945,0.295,2.38,12.268,4.028,71.849,-2.619
-0.043,0.934,0.293,6.348,12.939,4.028,72.275,-2.708
-0.028,0.923,0.382,10.986,7.263,2.014,71.029,-2.341
-0.046,0.929,0.332,6.104,1.892,0.732,70.626,-2.314
-0.044,0.927,0.338,5.371,8.85,2.686,69.956,-2.333
-0.034,0.925,0.407,3.662,3.235,1.526,68.389,-2.195
-0.042,0.906,0.352,4.944,1.709,0.305,68.682,-2.412
-0.035,0.898,0.347,3.723,0.732,-0.427,68.335,-2.264
-0.036,0.93,0.334,2.136,-0.61,1.526,68.418,-2.141
aX,aY,aZ,gX,gY,gZ,Roll,Pitch
-0.041,0.95,0.269,5.676,0.183,0.671,70.414,-2.248
-0.045,0.981,0.22,-15.625,-1.16,-3.052,72.568,-2.277
-0.015,0.921,0.303,7.019,-0.244,-0.732,73.294,-1.976
-0.047,0.963,0.278,2.197,-5.371,-0.183,74.186,-2.126
-0.025,0.942,0.247,6.836,-10.803,-2.258,74.494,-1.91
-0.014,0.93,0.293,8.728,-19.348,-4.211,73.318,-1.466
-0.026,0.948,0.236,2.075,-26.733,-6.653,74.362,-1.624
-0.026,0.958,0.263,8.362,-20.142,-4.395,74.572,-1.33
-0.034,0.923,0.293,9.155,-29.053,-6.958,73.832,-1.457
-0.045,0.922,0.281,-2.014,-27.1,-8.911,73.913,-1.921
-0.043,0.942,0.337,-7.019,-27.832,-7.812,72.44,-2.16
-0.047,0.958,0.249,-2.441,-31.677,-8.179,72.593,-2.463
-0.061,0.938,0.212,2.991,-18.982,-5.005,73.719,-2.861
-0.047,0.942,0.265,4.211,-11.536,-2.625,74.027,-2.883
-0.049,0.944,0.271,2.075,-13.855,-2.93,74.935,-2.987
-0.052,0.948,0.251,-1.282,-14.465,-3.357,74.867,-3.076
-0.061,0.946,0.228,-0.366,-8.606,-9.827,74.679,-3.067
-0.026,0.952,0.263,1.77,-7.446,-9.094,74.801,-2.745
-0.024,0.951,0.246,-0.732,-17.09,-3.845,75.24,-2.38
-0.035,0.948,0.192,-1.892,-16.479,-3.723,76.1,-2.127
-0.025,0.958,0.218,2.991,-13.428,-2.319,76.354,-1.601
-0.025,0.95,0.221,1.77,-23.499,-4.15,76.942,-1.595
-0.035,0.971,0.179,-5.066,-21.24,-2.991,77.927,-1.759
-0.035,0.974,0.152,-3.906,-15.503,-2.808,78.565,-1.762
-0.025,1,0.146,-14.648,-8.728,-1.892,79.692,-1.746
-0.026,0.975,0.128,3.662,-8.972,-1.526,81.051,-1.758
-0.032,0.968,0.121,-1.648,-11.292,-0.671,81.87,-1.717
-0.035,0.985,0.092,-2.075,-9.888,-1.221,82.734,-1.709
-0.039,0.982,0.094,0.793,-3.906,0.488,83.379,-1.918
-0.038,0.987,0.08,-0.183,-1.892,-0.366,83.999,-2.084
-0.039,0.972,0.082,2.563,-1.343,-0.549,84.492,-2.183
-0.031,0.98,0.116,4.456,1.282,-0.427,84.187,-2.137
-0.034,0.98,0.097,13.733,6.714,1.16,84.164,-2.069
-0.031,0.987,0.099,21.24,20.02,3.418,83.946,-1.96
-0.032,0.948,0.182,10.132,22.644,4.211,82.551,-1.861
-0.027,0.964,0.195,13.55,28.748,7.263,81.417,-1.803
-0.022,0.94,0.281,13.672,25.33,6.775,78.74,-1.632
-0.028,0.94,0.291,5.615,16.541,4.761,75.877,-1.592
-0.029,0.946,0.261,3.784,16.724,5.188,74.763,-1.544
-0.027,0.937,0.284,5.554,21.179,6.592,73.408,-1.536
-0.012,0.934,0.313,4.028,18.372,6.165,72.941,-1.387
-0.033,0.942,0.313,4.272,19.714,6.775,72.635,-1.467
-0.024,0.928,0.319,7.019,20.691,7.629,71.753,-1.394
-0.027,0.916,0.319,2.686,21.24,8.057,71.177,-1.402
-0.024,0.934,0.337,4.272,20.996,8.362,70.835,-1.579
-0.029,0.925,0.33,4.395,19.714,12.024,70.527,-1.511
-0.033,0.926,0.345,3.784,20.325,8.24,70.15,-1.635
-0.041,0.924,0.345,4.15,21.545,8.728,69.814,-1.83
-0.038,0.913,0.352,6.104,21.057,8.484,69.485,-2.041
-0.041,0.912,0.365,3.479,17.639,6.958,68.924,-2.228
-0.037,0.911,0.373,4.822,17.883,6.958,68.461,-2.296
-0.038,0.91,0.369,2.991,18.86,7.446,68.076,-2.248
-0.035,0.907,0.375,4.272,19.104,6.47,67.74,-2.203
-0.037,0.896,0.392,4.944,15.625,5.31,67.296,-2.136
-0.031,0.912,0.383,2.197,6.653,2.686,67.179,-2.039
-0.029,0.902,0.398,6.47,9.644,4.15,66.756,-1.919
-0.036,0.899,0.39,-8.301,-0.061,-0.549,66.513,-1.927
-0.034,0.899,0.393,2.075,0.488,-0.183,66.519,-1.892
-0.034,0.903,0.382,0.549,0.305,-0.122,66.482,-1.952
-0.053,0.912,0.407,26.306,-1.831,2.869,66.391,-2.291
aX,aY,aZ,gX,gY,gZ,Roll,Pitch
-0.09,0.843,0.272,7.019,-0.183,-0.244,67.57,-3.163
-0.037,0.947,0.269,-16.357,4.089,-1.282,69.525,-3.202
-0.022,0.925,0.284,6.836,1.587,0.366,71.008,-3.034
-0.028,0.949,0.268,0.671,-1.465,-0.854,73.185,-2.667
-0.04,1.007,0.349,19.226,-4.456,0.244,72.903,-1.823
-0.022,0.917,0.309,7.019,-15.747,-4.578,72.245,-1.621
-0.023,0.938,0.281,-0.977,-16.663,-3.967,72.354,-1.621
-0.034,0.935,0.29,1.648,-16.235,-3.662,71.981,-1.702
-0.034,0.95,0.273,-0.122,-11.414,-2.441,72.78,-1.646
-0.042,0.923,0.302,1.77,-11.658,0.488,72.871,-1.937
-0.042,0.951,0.287,2.93,-15.137,-3.662,72.811,-2.205
-0.042,0.933,0.28,4.272,-10.01,-2.563,72.927,-2.323
-0.042,0.928,0.303,3.967,-8.118,-2.319,72.406,-2.457
-0.039,0.927,0.312,0.488,-13.245,-3.113,72.307,-2.41
-0.04,0.935,0.292,-1.282,-17.578,-4.7,72.162,-2.388
-0.042,0.946,0.27,-1.221,-20.508,-5.005,72.363,-2.387
-0.046,0.941,0.261,-1.648,-20.325,-4.7,72.994,-2.435
-0.045,0.953,0.269,9.277,-20.935,-4.578,73.67,-2.515
-0.053,0.948,0.255,3.418,-17.578,-4.395,74.209,-2.701
-0.052,0.95,0.265,-0.305,-13.489,-3.479,74.27,-2.849
-0.04,0.946,0.287,0.916,-15.503,-3.357,73.944,-2.764
-0.042,0.93,0.224,-5.371,-27.649,-30.09,74.482,-2.745
-0.029,0.957,0.202,-2.136,-20.63,-4.089,75.312,-2.4
-0.029,0.973,0.194,-1.526,-17.334,-2.869,76.437,-2.06
-0.032,0.969,0.18,-2.502,-14.221,-2.319,78.042,-1.946
-0.029,0.973,0.191,6.531,-11.658,-2.075,78.675,-1.734
-0.025,0.967,0.195,4.456,-13.794,-2.319,78.81,-1.68
-0.031,0.972,0.172,-2.258,-14.587,-2.258,79.108,-1.701
-0.031,1,0.154,-7.629,-12.512,-2.808,79.559,-1.676
-0.026,0.964,0.171,5.859,-13.733,-2.075,79.814,-1.634
-0.018,0.994,0.124,-3.906,-6.287,-1.709,80.89,-1.519
-0.026,0.967,0.167,5.737,-8.789,-1.221,80.96,-1.457
-0.031,0.966,0.137,-6.47,-17.639,-2.197,81.114,-1.46
-0.04,0.988,0.082,-5.554,-11.047,-2.136,82.383,-1.656
-0.038,0.986,0.079,9.644,4.15,0.916,82.92,-1.952
-0.027,0.981,0.112,2.869,1.77,0.183,83.704,-1.956
-0.029,0.968,0.146,10.498,5.188,0.916,83.603,-1.932
-0.034,0.97,0.113,-2.014,4.089,0.244,83.165,-1.86
-0.03,0.973,0.102,15.93,18.372,2.93,82.861,-1.751
-0.027,0.963,0.175,12.878,22.339,4.211,81.932,-1.757
-0.025,0.957,0.218,14.038,20.386,4.7,80.887,-1.702
-0.022,0.955,0.237,9.094,23.56,6.47,79.116,-1.524
-0.021,0.949,0.28,6.958,21.301,6.592,76.533,-1.387
-0.027,0.943,0.281,6.287,17.334,6.042,74.972,-1.387
-0.028,0.943,0.283,5.493,18.616,8.179,74.008,-1.423
-0.043,0.945,0.301,3.967,20.264,7.202,73.049,-1.728
-0.035,0.934,0.322,8.24,21.362,7.935,72.379,-1.939
-0.042,0.922,0.343,3.357,19.531,7.568,71.417,-2.159
-0.049,0.92,0.335,3.845,20.264,7.751,70.573,-2.467
-0.051,0.921,0.338,1.77,22.156,8.484,69.952,-2.579
-0.055,0.906,0.403,10.559,17.944,6.226,68.679,-2.86
-0.029,0.9,0.398,2.625,5.615,2.502,67.847,-2.672
-0.052,0.908,0.368,0.854,5.615,2.625,67.326,-2.722
-0.054,0.909,0.364,2.258,8.911,3.662,66.899,-2.771
-0.047,0.899,0.39,0.916,7.019,3.479,67.041,-2.673
-0.054,0.906,0.368,-0.366,11.536,5.188,67.427,-3.042
-0.058,0.898,0.369,0.854,15.808,6.531,67.355,-3.133
-0.046,0.915,0.381,1.77,21.423,7.812,67.173,-3.006
-0.038,0.892,0.402,4.15,21.545,7.69,66.997,-2.864
-0.029,0.897,0.407,0.854,17.944,5.615,66.465,-2.495
-0.037,0.914,0.383,0.244,19.348,8.911,66.397,-2.17
-0.035,0.89,0.402,5.005,19.409,8.484,65.99,-2.013
-0.026,0.894,0.406,1.404,10.62,5.066,65.963,-1.845
-0.037,0.915,0.399,-0.427,12.756,4.211,66.175,-1.958
-0.025,0.913,0.38,-5.066,7.446,2.563,66.217,-1.794
-0.034,0.916,0.369,-6.042,9.155,3.113,66.801,-1.78
-0.016,0.885,0.398,6.592,6.592,2.808,66.863,-1.631
-0.026,0.921,0.359,1.099,1.343,0.122,67.434,-1.479
-0.032,0.919,0.356,-1.343,0.732,-0.305,67.779,-1.574
-0.016,0.876,0.394,22.766,-4.517,3.296,67.246,-1.322
aX,aY,aZ,gX,gY,gZ,Roll,Pitch