aX,aY,aZ,gX,gY,gZ,Roll,Pitch
-0.003,0.954,0.232,11.963,-0.977,0,76.341,-0.199
-0.001,0.996,0.208,-29.785,2.258,-2.869,77.294,-0.122
0.014,0.934,0.246,0.488,0.061,-0.671,76.623,0.189
0.062,0.927,0.301,3.296,-34.302,-5.005,75.446,1.039
0.029,0.951,0.201,4.517,-58.228,-11.719,75.826,1.509
0.02,0.968,0.263,1.221,-54.993,-13.123,74.914,1.817
0.012,0.971,0.213,11.23,-55.786,-11.963,75.519,1.782
-0.001,0.971,0.178,1.099,-47.485,-11.169,77.484,0.868
0.001,0.959,0.262,11.108,-34.424,-8.179,76.674,0.461
-0.036,0.973,0.145,-3.906,-10.315,-2.502,78.357,-0.348
-0.007,0.905,0.291,14.954,2.991,1.404,77.033,-0.643
-0.019,0.974,0.24,6.836,2.258,0.671,76.14,-0.905
-0.038,0.971,0.216,-10.132,13.245,2.991,76.778,-1.465
-0.012,0.954,0.241,5.188,36.133,8.972,75.397,-1.107
0.018,0.946,0.302,6.897,41.382,13.245,75.419,-0.729
0.029,0.949,0.326,7.08,34.363,10.803,74.149,-0.028
0.025,0.951,0.266,4.089,37.231,12.268,73.359,0.873
0.021,0.927,0.291,3.906,46.387,15.198,72.514,1.356
0.019,0.953,0.342,-1.648,34.241,9.277,71.995,1.366
0.014,0.932,0.288,1.831,30.273,9.216,72.462,1.156
0.037,0.926,0.358,0.305,18.738,5.554,71.068,1.329
0,0.96,0.268,-11.169,-1.831,-0.854,71.56,1.008
aX,aY,aZ,gX,gY,gZ,Roll,Pitch
0.006,0.941,0.282,5.981,-0.183,-0.122,72.327,0.824
0.011,0.942,0.264,-19.897,2.319,-2.563,72.7,0.783
0.017,0.931,0.244,1.404,-1.77,-0.793,74.325,0.496
0.042,0.929,0.347,0.732,-13.062,-2.258,73.057,1.11
0.025,0.956,0.226,-1.831,-42.603,-7.874,73.886,1.391
0.03,0.97,0.166,-1.648,-42.419,-6.714,75.342,1.662
0.019,0.961,0.251,5.615,-46.692,-7.751,75.348,1.676
0.001,0.964,0.174,6.287,-41.443,-9.399,77.967,1.084
0.001,0.972,0.224,-3.418,-41.382,-9.033,78.072,0.736
-0.005,0.976,0.205,5.859,-32.104,-6.47,77.561,0.229
-0.007,0.959,0.224,10.254,-23.315,-4.272,77.946,-0.136
-0.018,0.953,0.197,0.61,-18.982,-4.028,77.582,-0.402
-0.02,0.991,0.208,8.179,2.441,1.282,77.859,-0.705
-0.009,0.953,0.251,0.854,1.953,0.366,77.137,-0.764
-0.029,0.962,0.231,8.362,11.047,4.028,77.024,-1.081
-0.008,0.975,0.228,7.812,20.081,5.188,76.664,-0.929
-0.009,0.95,0.239,8.972,35.706,10.376,76.091,-0.783
0.005,0.93,0.282,0.244,37.537,11.414,75.579,-0.589
0.001,0.965,0.267,0.122,40.222,11.658,75.087,-0.154
0.019,0.926,0.306,9.033,44.556,14.526,73.81,0.226
0.025,0.913,0.308,1.404,35.095,11.658,72.678,0.728
0.017,0.953,0.302,1.587,37.109,10.803,72.493,0.906
0.024,0.927,0.305,-4.211,29.724,8.545,71.786,1.24
0.012,0.943,0.304,-3.845,19.226,5.249,71.892,1.139
0.032,0.972,0.317,4.15,5.432,1.465,72.03,1.227
0.002,0.961,0.238,2.869,1.953,0.793,72.965,1.013
aX,aY,aZ,gX,gY,gZ,Roll,Pitch
-0.004,0.95,0.276,8.484,-0.122,0.732,73.473,0.619
0.067,0.961,0.289,-39.551,2.93,-2.258,73.703,1.399
0.02,0.976,0.298,5.859,-6.409,-0.732,73.991,1.221
0.042,0.952,0.265,-1.221,-37.781,-7.385,73.53,1.794
0.045,0.946,0.223,6.348,-55.847,-10.437,74.152,2.503
0.008,0.943,0.203,-1.221,-52.246,-11.597,75.383,1.67
0.022,0.957,0.207,0.61,-52.124,-10.681,76.593,1.723
-0.001,0.97,0.17,3.418,-43.579,-8.301,78.063,1.094
-0.011,0.963,0.182,2.502,-30.334,-5.676,78.748,0.27
-0.003,0.972,0.202,-2.014,-27.527,-4.7,78.857,0.11
-0.029,0.987,0.125,-7.568,-15.32,-2.808,80.091,-0.641
-0.011,0.968,0.184,11.414,1.526,0.244,79.882,-0.795
-0.009,0.972,0.19,3.052,1.343,0.488,79.793,-0.77
-0.019,0.974,0.163,6.287,3.662,0.61,80.319,-1.002
-0.026,0.983,0.163,3.784,18.799,4.822,79.762,-0.952
-0.006,0.957,0.225,13.672,34.119,9.033,79.154,-0.879
0.009,0.938,0.262,6.042,37.903,10.986,78.053,-0.618
0.007,0.953,0.269,4.822,39.856,11.658,76.501,-0.24
0.005,0.954,0.293,-2.563,39.734,11.23,74.569,0.202
0.016,0.938,0.283,3.174,39.673,11.963,73.683,0.52
0.017,0.927,0.281,-8.24,38.818,10.498,73.36,0.641
0.007,0.954,0.26,0.122,31.006,8.179,73.489,0.64
0.015,0.935,0.311,-5.249,14.16,3.235,73.147,0.79
-0.003,0.959,0.2,-10.681,8.179,0.549,74.405,0.518
0.002,0.979,0.177,9.766,10.315,2.319,76.07,0.289
0.023,0.924,0.312,12.512,1.343,4.211,75.225,0.524
aX,aY,aZ,gX,gY,gZ,Roll,Pitch
0.003,0.948,0.227,16.113,2.197,2.258,76.467,0.355
0.036,0.958,0.233,-22.522,2.136,-2.38,75.973,0.921
0.025,1.01,0.206,-11.108,-8.118,-2.014,75.656,1.243
0.036,0.957,0.2,2.991,-40.283,-6.47,77.307,1.427
0.027,0.973,0.185,7.507,-50.232,-7.507,77.928,1.76
0.019,0.915,0.179,6.409,-51.941,-10.62,78.584,1.544
0.006,0.977,0.199,0.671,-42.236,-8.057,78.615,1.292
0.009,0.968,0.155,-2.686,-41.443,-7.874,79.331,0.897
0,0.985,0.153,2.197,-31.799,-5.676,79.854,0.505
-0.021,0.959,0.143,-2.441,-20.691,-3.601,80.503,-0.089
-0.018,1.009,0.147,4.517,2.075,0.854,81.321,-0.436
-0.006,0.977,0.174,-2.319,1.16,0.183,81.061,-0.64
-0.014,0.969,0.161,5.798,3.357,0.61,80.895,-0.845
-0.018,0.975,0.171,15.93,20.691,5.371,80.533,-0.801
0,0.944,0.233,9.888,28.931,7.812,79.154,-0.558
-0.005,0.934,0.233,0.854,32.898,9.277,78.186,-0.55
0.007,0.956,0.288,3.906,33.813,9.46,76.332,-0.244
0.008,0.965,0.272,9.521,34.546,10.132,74.876,0.137
0.001,0.93,0.285,3.052,34.912,10.62,74.095,0.153
0.003,0.942,0.299,-0.305,32.715,9.766,73.206,0.27
0.017,0.946,0.325,10.498,29.358,9.277,72.658,0.424
0.007,0.923,0.303,2.197,24.17,7.874,72.044,0.422
0.016,0.924,0.342,0.122,12.817,4.211,71.223,0.642
0.007,0.915,0.299,7.263,1.099,1.343,71.092,0.699
0.007,0.939,0.27,-3.662,-1.587,-0.366,71.826,0.548
aX,aY,aZ,gX,gY,gZ,Roll,Pitch
-0.007,0.921,0.285,25.513,-0.732,0.671,72.075,0.333
0.012,0.928,0.303,-21.24,5.554,-1.953,72.648,0.276
0.035,0.941,0.285,-0.061,-4.089,-1.77,72.948,0.683
0.05,0.951,0.301,-0.549,-27.771,-6.348,72.538,1.306
0.044,0.937,0.278,7.996,-44.8,-10.315,72.629,2.045
0.06,0.975,0.266,-8.667,-72.754,-19.531,73.236,2.712
0.001,0.959,0.222,10.254,-49.805,-11.414,74.248,2.23
0.007,0.971,0.2,0.183,-41.687,-10.62,75.795,1.613
-0.028,0.989,0.166,-0.732,-7.507,-1.892,77.621,0.575
0.002,0.926,0.276,7.935,2.075,0.671,77.337,-0.256
-0.01,0.963,0.236,5.249,2.563,0.732,77.146,-0.42
-0.007,0.967,0.224,7.629,13.123,5.005,76.778,-0.621
-0.001,0.948,0.264,10.071,27.283,8.423,75.259,-0.235
0.005,0.933,0.311,7.568,31.555,10.132,74.802,-0.19
0.01,0.926,0.327,6.592,28.687,9.766,73.38,0.092
0.008,0.934,0.328,1.221,23.254,8.057,71.788,0.318
0.008,0.922,0.318,2.808,22.888,7.935,70.918,0.452
0.013,0.927,0.329,3.906,23.682,8.118,70.628,0.564
0.006,0.93,0.27,1.526,28.748,8.972,71.443,0.52
0.019,0.927,0.336,2.625,30.518,10.071,71.306,0.676
0.018,0.923,0.346,2.563,21.484,7.629,70.927,0.817
0.023,0.919,0.375,1.648,8.911,2.991,70.249,0.966
0.009,0.942,0.31,3.174,0.427,-0.122,69.754,1.002
aX,aY,aZ,gX,gY,gZ,Roll,Pitch
0.038,1.018,0.282,10.986,-0.366,0.854,70.907,1.262
-0.02,0.919,0.28,-28.625,5.615,-0.854,71.805,0.729
0.042,0.916,0.324,10.559,-19.592,-3.357,72.477,1.007
0.049,0.939,0.228,1.587,-54.443,-12.512,73.562,1.592
0.033,0.975,0.193,-5.066,-48.767,-10.193,74.643,1.545
0.036,0.942,0.214,2.747,-45.166,-8.606,75.565,2.362
0.01,0.969,0.158,6.348,-42.236,-7.141,78.158,1.881
-0.029,0.986,0.033,-6.775,-18.372,-2.625,81.198,0.73
0.01,0.926,0.248,14.404,3.601,0.977,80.303,0.388
-0.002,0.977,0.183,7.202,1.343,0.183,80.84,-0.165
-0.018,0.916,0.151,9.644,12.512,4.517,80.808,-0.577
-0.008,0.957,0.217,10.193,27.832,7.69,78.063,-0.255
0.012,0.956,0.261,10.742,37.72,11.169,77.965,-0.223
0.023,0.929,0.318,4.7,35.828,11.353,75.861,0.134
0.009,0.934,0.319,4.517,27.466,9.033,73.539,0.519
0.012,0.931,0.314,3.418,24.048,7.812,72.073,0.807
0.011,0.935,0.318,0.366,22.949,7.446,71.198,0.803
0.009,0.93,0.312,1.587,20.874,6.592,71.291,0.602
0.013,0.936,0.305,0.977,16.479,5.188,71.494,0.661
0.014,0.922,0.321,3.906,17.273,5.798,71.351,0.691
0.019,0.942,0.313,1.648,7.202,2.258,71.44,0.798
0.008,0.954,0.28,-0.183,1.038,0.366,71.992,0.78
-0.006,0.962,0.253,11.536,-2.808,-0.427,72.829,0.506
aX,aY,aZ,gX,gY,gZ,Roll,Pitch
-0.033,0.857,0.277,9.583,-1.465,0.732,73.167,-0.182
0.009,0.921,0.308,-20.386,3.357,-1.038,73.151,-0.326
0.011,0.95,0.266,0.549,-3.052,-1.77,73.338,-0.283
0.035,0.926,0.307,2.38,-21.667,-4.578,72.42,0.33
0.042,0.955,0.279,1.526,-44.25,-10.254,72.777,1.414
0.026,0.955,0.229,-3.418,-46.631,-10.498,73.999,1.65
0.015,0.97,0.218,-0.488,-45.288,-9.399,74.734,1.711
0.018,0.96,0.236,-0.977,-35.034,-7.08,75.867,1.447
0.01,0.968,0.211,-0.061,-31.86,-6.531,76.901,0.983
-0.017,0.978,0.133,-4.211,-22.156,-4.211,78.356,0.371
-0.003,0.944,0.223,10.254,1.77,0.732,78.219,0.112
-0.005,0.965,0.207,5.737,1.587,0.183,78.645,-0.221
-0.006,0.972,0.205,9.216,5.31,1.892,78.734,-0.457
-0.011,0.972,0.196,8.667,19.531,5.432,77.819,-0.38
-0.005,0.943,0.271,12.085,30.64,8.85,77.131,-0.414
0.005,0.929,0.299,9.705,29.907,9.521,75.712,-0.263
0.006,0.937,0.294,3.479,32.41,10.864,74.324,-0.082
0.01,0.937,0.328,5.432,33.936,11.78,72.33,0.238
0.014,0.918,0.349,9.033,34.363,11.902,71.134,0.521
0.026,0.915,0.354,-0.977,28.687,10.376,70.304,0.819
0.017,0.898,0.365,5.859,21.973,7.751,69.134,0.985
0.01,0.922,0.335,-6.714,11.414,4.15,68.969,0.979
0.016,0.934,0.331,-0.427,10.803,3.601,69.288,1.002
0.005,0.928,0.322,13.977,-2.563,1.465,69.806,0.704
aX,aY,aZ,gX,gY,gZ,Roll,Pitch
0.012,0.938,0.31,8.85,0.549,-0.427,70.757,0.626
-0.008,0.983,0.295,-39.795,4.272,-2.563,71.595,0.363
0.027,0.911,0.293,-8.606,-4.15,-1.282,72.019,0.524
0.043,0.966,0.258,-5.981,-32.349,-6.165,73.042,1.071
0.038,0.954,0.232,7.019,-41.321,-7.812,74.161,1.449
0.032,0.983,0.249,15.869,-45.532,-10.803,74.731,2.03
0.032,0.96,0.242,10.864,-48.218,-11.719,75.602,2.091
0.014,0.93,0.214,7.812,-37.659,-8.972,76.149,1.686
-0.007,0.944,0.223,-1.709,-30.151,-6.775,76.301,1.04
-0.031,0.969,0.141,-1.099,-15.015,-3.235,77.832,0.12
0.004,0.92,0.294,15.808,2.563,0.793,76.943,-0.302
-0.003,0.958,0.249,2.808,1.648,0.244,76.525,-0.551
-0.007,0.959,0.206,0.977,1.038,0.488,76.814,-0.556
-0.014,0.967,0.217,5.859,17.212,4.883,75.744,-0.305
0.007,0.938,0.289,9.155,30.212,9.216,75.887,-0.257
0.009,0.944,0.313,5.493,29.846,9.949,74.931,-0.085
-0.001,0.935,0.304,2.258,28.625,9.094,73.469,0
0.01,0.936,0.319,9.338,31.128,9.705,71.914,0.347
0.012,0.922,0.309,3.357,34.424,11.841,71.564,0.419
0.027,0.921,0.337,5.92,31.067,10.498,71.123,0.693
0.019,0.919,0.333,0,25.269,8.667,70.633,0.987
0.033,0.932,0.462,-2.563,3.296,1.587,68.657,1.31
0.012,0.941,0.297,3.601,0.732,-0.122,68.908,1.318
0.002,0.954,0.308,22.705,-2.747,1.831,69.48,0.95
aX,aY,aZ,gX,gY,gZ,Roll,Pitch
0.002,0.923,0.334,21.301,-2.686,-0.305,69.499,0.704
0.017,1,0.297,-23.56,0.427,-1.526,72.054,0.471
0.016,0.927,0.296,-17.029,-7.324,-2.563,72.016,0.525
0.069,0.945,0.283,-6.165,-38.94,-9.216,72.265,1.494
0.016,0.967,0.204,-0.366,-39.734,-8.301,74.205,1.692
-0.006,0.954,0.208,-0.305,-34.241,-7.019,75.297,1.383
0.017,0.95,0.24,3.113,-31.555,-5.981,76.162,1.394
-0.005,0.961,0.207,-4.333,-33.447,-6.958,77.357,0.317
-0.002,0.962,0.183,0.427,-26.672,-4.639,77.646,0.063
-0.013,0.97,0.157,-4.028,-19.165,-3.174,78.415,-0.03
-0.018,0.999,0.151,1.709,0.427,-0.183,79.81,-0.534
-0.009,0.968,0.189,0.427,0.183,-0.122,80.076,-0.597
-0.009,0.973,0.182,3.906,1.16,0.244,80.111,-0.698
-0.02,0.952,0.156,11.597,8.606,2.502,80.078,-0.807
-0.006,0.946,0.214,12.756,23.743,5.981,79.049,-0.639
0.002,0.948,0.271,7.874,25.879,7.202,77.827,-0.485
0.004,0.956,0.279,5.737,24.231,6.836,76.393,-0.297
0.007,0.938,0.28,4.944,23.499,7.08,74.586,0.107
0.002,0.945,0.299,4.578,19.165,6.042,73.391,0.22
-0.004,0.939,0.28,5.31,18.982,5.859,73.23,0.138
0,0.942,0.277,1.465,22.766,6.897,73.201,0.089
0.005,0.923,0.289,5.493,28.931,8.667,73.014,0.055
0.007,0.925,0.329,5.432,18.86,6.042,72.513,0.129
0.006,0.926,0.335,2.747,5.859,2.014,71.687,0.279
0.001,0.946,0.307,0.549,0.549,-0.183,71.283,0.285
0.005,0.922,0.325,5.249,0.427,0.61,70.79,0.288
aX,aY,aZ,gX,gY,gZ,Roll,Pitch
-0.002,0.922,0.34,9.277,-0.977,0.427,70.62,0.158
0.041,0.937,0.334,-30.09,6.165,-1.709,70.674,0.666
0.006,0.909,0.344,-3.906,-2.441,-1.221,69.989,0.744
0.031,0.934,0.344,1.892,-24.048,-5.554,69.766,1.11
0.03,0.954,0.239,-6.714,-45.654,-10.498,71.268,1.57
0.011,0.962,0.193,-2.502,-42.542,-8.728,73.369,1.136
0.021,0.937,0.199,4.333,-45.593,-8.423,75.499,1.361
-0.017,0.966,0.18,5.005,-30.334,-4.944,77.992,0.658
-0.004,0.96,0.183,-7.568,-25.574,-4.578,78.84,0.158
-0.029,0.981,0.104,1.038,-5.981,-1.648,80.168,-0.436
-0.006,0.945,0.21,4.7,0.305,-0.061,80.001,-0.833
-0.01,0.969,0.189,4.272,1.16,-0.061,79.885,-0.73
-0.037,0.967,0.093,13.977,18.127,3.235,81.143,-1.215
0.019,0.939,0.295,15.564,42.48,11.597,78.339,-0.509
0.016,0.919,0.298,7.874,33.447,10.681,77.006,-0.19
0,0.93,0.313,6.287,29.602,9.338,75.105,-0.041
0.001,0.934,0.311,4.211,26.306,8.545,71.896,0.518
0.008,0.926,0.331,6.226,29.419,10.132,71.335,0.364
0.013,0.904,0.367,5.188,19.775,7.019,70.319,0.317
0.008,0.919,0.353,0.671,14.648,5.371,69.71,0.431
0.003,0.914,0.312,-0.305,14.404,4.517,69.592,0.455
0.007,0.924,0.353,5.188,10.193,3.418,69.29,0.436
aX,aY,aZ,gX,gY,gZ,Roll,Pitch
0.006,0.937,0.276,2.38,-0.916,-1.526,70.699,0.347
0.002,0.953,0.217,2.686,-4.395,-2.014,72.75,0.269
0.043,0.924,0.328,7.812,-20.813,-4.395,72.541,0.855
0.038,0.933,0.31,-2.38,-46.814,-12.512,73.149,1.315
0.041,0.943,0.268,20.691,-53.894,-13.977,73.235,1.823
0.006,0.952,0.255,3.296,-41.809,-11.475,72.699,1.88
0.001,0.938,0.251,-2.869,-36.926,-9.705,73.897,1.269
-0.022,0.959,0.218,-5.92,-24.475,-5.981,75.331,0.389
-0.016,0.979,0.251,6.714,0.427,0.244,75.706,-0.439
-0.007,0.952,0.262,-0.244,1.099,0.061,75.6,-0.628
-0.009,0.953,0.253,3.357,1.404,0.183,75.611,-0.765
-0.013,0.903,0.236,9.766,10.01,3.113,75.165,-0.648
-0.012,0.953,0.275,4.333,21.118,5.92,74.734,-0.603
-0.006,0.925,0.293,12.085,27.893,8.972,74.184,-0.595
0.008,0.943,0.335,1.038,26.855,9.277,72.997,-0.341
0.01,0.934,0.314,5.493,30.701,10.498,72.05,0.002
0.011,0.924,0.316,2.014,36.682,12.024,71.35,0.34
0.017,0.926,0.341,3.723,36.926,13,70.68,0.675
0.027,0.909,0.371,2.38,27.161,9.949,70.005,0.956
0.02,0.915,0.358,2.075,9.094,3.601,69.3,1.1
0.003,0.918,0.324,0.916,5.676,2.258,69.153,0.987
0.007,0.915,0.325,5.188,7.935,3.235,69.324,0.845
aX,aY,aZ,gX,gY,gZ,Roll,Pitch
-0.019,0.969,0.346,8.789,-0.916,0.122,69.982,0.172
0,0.882,0.318,-23.499,3.113,-0.732,70.369,-0.118
0.03,0.961,0.319,13.062,-14.465,-2.258,70.648,0.278
0.047,0.939,0.276,-7.08,-47.485,-10.315,71.422,0.859
0.063,0.964,0.184,-1.587,-60.608,-11.414,73.558,2.076
-0.008,0.975,0.153,-1.831,-53.406,-8.728,76.229,1.925
0.006,0.978,0.124,0.549,-36.011,-4.639,79.077,1.581
-0.018,0.959,0.144,4.456,-25.024,-2.991,81.114,0.633
-0.012,0.944,0.126,13.611,-16.113,-2.258,81.918,-0.47
-0.012,0.99,0.167,7.812,1.526,0.793,81.74,-0.515
-0.011,0.971,0.187,1.892,1.831,0.427,80.792,-0.761
-0.009,0.967,0.193,5.249,6.714,1.892,80.117,-0.63
-0.013,1.004,0.157,6.165,20.142,4.333,79.817,-0.636
-0.014,0.951,0.211,13.123,38.879,9.583,79.1,-0.672
0.015,0.933,0.265,13.184,41.931,11.902,77.902,-0.295
0.008,0.94,0.289,7.507,40.161,12.817,76.462,-0.044
0.01,0.928,0.319,10.437,44.434,14.221,73.895,0.294
0.024,0.915,0.349,7.141,39.673,13.611,71.778,0.851
0.032,0.9,0.381,2.808,29.053,11.108,70.015,1.094
0.024,0.909,0.358,-2.502,14.099,4.639,68.888,1.327
0.008,0.956,0.315,-0.183,-0.183,-0.732,69.092,1.284
aX,aY,aZ,gX,gY,gZ,Roll,Pitch
0.019,0.927,0.3,2.075,0.122,-0.244,69.827,1.211
0.021,0.953,0.307,-27.954,3.845,-2.014,71.096,1.044
0.016,0.921,0.299,0.61,-2.991,-1.16,71.972,0.922
0.04,0.937,0.326,-8.85,-29.785,-5.371,71.696,1.395
0.068,0.972,0.25,8.85,-51.147,-9.46,72.518,2.092
-0.001,0.949,0.188,-1.831,-54.504,-11.23,74.183,1.797
0.014,0.989,0.146,-2.747,-37.598,-5.554,76.577,1.753
0.002,0.967,0.176,-1.343,-38.452,-5.676,78.842,1.207
-0.007,0.993,0.129,15.015,-34.485,-4.639,80.689,0.117
-0.034,1.016,0.064,-3.357,2.075,-0.977,82.587,-0.36
-0.004,0.959,0.186,0,0.366,0,81.936,-0.616
-0.007,0.966,0.179,4.211,0.916,-0.122,81.892,-0.744
-0.014,0.974,0.16,8.972,5.859,1.465,81.403,-0.853
-0.008,0.969,0.153,10.193,20.874,4.639,80.048,-0.486
-0.001,0.965,0.227,10.071,29.48,7.08,79.486,-0.435
0.001,0.945,0.254,6.836,29.785,8.118,78.347,-0.32
0.005,0.952,0.26,4.15,28.503,7.751,76.86,-0.036
0.004,0.947,0.254,3.845,32.043,8.545,75.357,0.144
0.02,0.946,0.29,6.042,36.072,11.108,74.389,0.448
0.016,0.934,0.308,7.202,31.982,10.62,73.59,0.655
0.016,0.926,0.322,2.625,27.832,9.521,72.603,0.807
0.007,0.876,0.332,6.042,0.061,1.282,71.194,0.854
0.001,0.927,0.303,9.338,0.183,-0.366,70.936,0.568
aX,aY,aZ,gX,gY,gZ,Roll,Pitch
-0.016,0.969,0.22,18.433,-1.343,1.526,72.338,0.101
0.008,0.949,0.237,-23.132,5.005,-1.038,73.644,-0.004
0.019,0.981,0.243,4.7,-3.967,-1.892,75.307,0.177
0.026,0.933,0.261,4.639,-41.321,-10.01,75.904,0.543
0.041,0.959,0.236,-3.479,-50.415,-10.864,75.593,1.375
0.013,0.972,0.177,-3.174,-48.34,-9.216,76.508,1.433
0.002,0.965,0.181,8.789,-35.278,-5.676,77.36,1.196
-0.005,0.964,0.217,-0.732,-30.884,-5.859,78.117,0.743
-0.012,0.966,0.205,-2.991,-25.696,-4.944,78.599,-0.034
-0.031,0.985,0.111,-1.404,-7.08,-2.197,79.554,-0.667
-0.001,0.934,0.25,2.502,1.099,0.122,78.473,-0.718
-0.007,0.951,0.234,4.028,1.221,0.366,78.195,-0.753
-0.012,0.971,0.216,5.615,3.235,0.671,78.06,-0.743
-0.01,0.96,0.215,7.69,11.902,3.662,76.514,-0.44
-0.013,0.953,0.251,13.977,28.87,8.484,76.561,-0.614
0,0.927,0.283,16.541,33.875,12.085,75.78,-0.505
0.008,0.926,0.336,6.165,41.443,14.954,73.922,-0.218
0.015,0.904,0.371,3.418,40.161,15.259,71.497,0.148
0.025,0.915,0.365,4.883,39.124,14.954,69.732,0.704
0.021,0.893,0.409,3.967,30.64,11.963,67.826,1.001
0.017,0.904,0.367,1.831,22.339,9.033,67.281,1.133
0.026,0.896,0.422,0.671,8.301,3.357,66.545,1.286
0.008,0.919,0.36,7.507,-1.343,0.366,66.646,1.035
aX,aY,aZ,gX,gY,gZ,Roll,Pitch
0.004,0.92,0.333,5.737,-0.305,0.793,67.837,0.79
0.005,0.96,0.304,-29.724,2.319,-2.136,68.987,0.611
0.013,0.931,0.286,-1.221,-5.737,-2.075,71.022,0.427
0.034,0.944,0.296,-5.798,-23.376,-5.005,72.005,0.817
0.046,0.956,0.264,-0.488,-43.152,-8.24,73.074,1.425
0.027,0.94,0.203,5.676,-56.885,-11.047,74.362,1.771
0.004,0.965,0.18,-4.272,-47.302,-10.315,75.982,1.646
-0.006,0.973,0.174,-9.033,-34.729,-6.775,77.859,1.06
-0.023,0.966,0.156,0.244,-27.771,-4.333,79.475,0.041
-0.013,0.974,0.136,-0.977,-14.954,-2.38,80.52,-0.555
-0.017,0.965,0.185,12.512,2.563,0.732,80.426,-0.861
-0.015,0.976,0.18,2.441,1.648,0.488,80.335,-0.988
-0.028,0.965,0.177,6.226,5.249,1.709,80.032,-1.062
-0.023,0.982,0.163,16.907,29.236,5.859,79.653,-1.196
0.003,0.936,0.258,21.545,39.856,11.23,78.573,-0.922
0.014,0.919,0.324,13.245,41.016,13.794,76.371,-0.515
0.024,0.917,0.359,5.127,34.241,12.695,73.627,0.256
0.006,0.914,0.355,5.066,29.907,11.414,70.633,0.677
0.011,0.915,0.369,3.113,24.17,8.606,68.994,0.793
0.009,0.91,0.36,2.93,17.09,6.409,68.454,0.719
0.008,0.924,0.34,3.113,17.761,6.47,68.746,0.482
0.027,0.908,0.451,7.812,2.563,1.953,67.412,0.784
0.001,0.944,0.317,-6.592,-0.061,-0.305,68.277,0.642
aX,aY,aZ,gX,gY,gZ,Roll,Pitch
0.019,0.912,0.359,6.897,0,0.183,68.306,0.788
0.029,0.924,0.323,-33.386,5.615,-1.343,68.522,1.089
0.021,0.903,0.35,-19.043,-8.667,-2.502,69.863,1.016
0.037,0.932,0.316,-1.526,-37.842,-9.827,69.778,1.541
0.025,0.964,0.229,14.771,-44.861,-10.803,71.81,1.628
0.02,0.965,0.223,-5.615,-41.382,-9.583,73.395,1.493
0,0.958,0.2,-2.38,-29.358,-5.493,75.742,1.179
0.003,0.963,0.217,-2.625,-27.283,-4.822,77.27,0.695
-0.009,0.967,0.179,-5.066,-23.01,-3.113,78,0.206
-0.01,0.967,0.156,-2.747,-23.499,-3.235,78.958,-0.223
-0.019,0.974,0.121,0.671,-12.634,-2.197,80.123,-0.497
-0.01,0.968,0.18,16.418,4.089,1.221,80.661,-0.685
-0.01,0.98,0.16,3.601,5.493,1.587,80.971,-0.702
-0.013,0.991,0.167,5.005,20.203,4.089,80.866,-0.741
-0.003,0.96,0.235,12.512,27.771,6.531,79.217,-0.511
-0.005,0.949,0.24,7.69,27.283,7.263,78.318,-0.447
-0.043,0.959,0.188,10.498,42.542,9.644,77.829,-0.927
0.044,0.92,0.313,7.812,46.936,13.855,75.556,-0.097
0.035,0.929,0.321,2.319,33.325,11.353,74.226,0.462
0.02,0.931,0.307,1.526,28.992,9.766,73.194,0.834
0.017,0.929,0.333,1.526,22.827,7.69,70.974,1.704
0.021,0.931,0.348,4.639,5.249,2.93,70.566,1.362
0.009,0.928,0.301,3.479,2.075,-0.244,70.852,0.99
0.01,0.944,0.288,-0.549,0.488,0.122,71.174,0.844
-0.001,0.956,0.29,12.939,-0.916,0.854,71.902,0.582
aX,aY,aZ,gX,gY,gZ,Roll,Pitch
0.008,0.928,0.318,17.944,-2.136,1.099,72.307,0.394
0.01,0.912,0.326,-14.709,2.747,-0.671,71.884,0.402
0.028,0.907,0.322,2.075,-1.953,-0.61,71.236,0.665
0.045,0.905,0.318,-0.427,-26.123,-5.676,70.566,1.347
0.019,0.95,0.27,5.554,-42.908,-10.62,71.341,1.508
0.036,0.958,0.246,-1.038,-49.316,-12.085,72.635,1.883
0.014,0.963,0.211,2.075,-46.204,-10.498,74.447,1.664
-0.005,0.953,0.219,1.587,-34.851,-7.935,76.09,0.939
-0.01,0.965,0.212,-2.991,-24.78,-5.188,76.975,0.511
-0.014,0.958,0.214,8.118,-14.404,-3.174,77.434,-0.213
-0.017,0.989,0.214,10.803,2.197,0.916,77.447,-0.655
-0.011,0.962,0.225,4.15,2.136,0.61,77.38,-0.744
-0.018,0.972,0.214,1.587,15.076,3.784,77.369,-0.864
-0.01,0.964,0.25,10.071,34.546,10.193,76.888,-0.803
0.01,0.925,0.325,7.141,37.659,12.329,75.132,-0.421
0.021,0.928,0.303,5.188,41.87,14.465,73.916,0.034
0.022,0.907,0.375,8.606,42.053,15.198,71.386,0.618
0.016,0.922,0.361,2.686,35.217,13.245,69.643,0.999
0.034,0.91,0.372,5.737,36.072,14.221,68.91,1.345
0.032,0.885,0.411,0.977,18.982,7.202,67.203,1.519
0.003,0.93,0.373,2.319,2.808,0.793,67.375,1.237
0.016,0.916,0.36,2.258,0.183,-0.366,67.348,1.234
0.01,0.919,0.359,10.437,-1.77,-0.732,67.59,0.879
aX,aY,aZ,gX,gY,gZ,Roll,Pitch
0.009,0.925,0.354,5.737,-0.244,0.061,68.589,0.537
0.042,0.986,0.318,-10.559,1.038,-0.183,69.599,1.096
0.014,0.914,0.446,-8.24,-10.132,-1.648,68.453,1.067
0.054,0.93,0.32,-2.625,-45.898,-12.878,68.982,1.703
0.02,0.946,0.26,-3.967,-53.406,-15.198,70.316,1.862
0.023,0.956,0.233,1.16,-46.143,-10.803,71.345,1.609
-0.002,0.951,0.267,1.038,-34.668,-9.277,74.001,1.376
0.012,0.939,0.257,-3.662,-34.302,-8.911,74.968,0.757
-0.002,0.976,0.209,-3.418,-28.809,-6.165,75.819,0.438
-0.025,0.969,0.184,-1.892,-12.39,-2.319,76.556,-0.248
0,0.936,0.256,17.273,3.052,0.977,76.654,-0.223
-0.011,0.968,0.23,4.395,2.502,0.671,77.117,-0.551
-0.011,0.969,0.201,4.883,21.545,6.409,77.2,-0.689
-0.003,0.939,0.279,9.216,30.884,10.01,75.766,-0.381
0.002,0.929,0.302,8.728,33.691,11.047,75.092,-0.352
0.009,0.911,0.349,3.784,30.64,11.23,73.21,-0.066
0.009,0.935,0.32,-0.854,27.527,9.766,71.401,0.237
0.006,0.933,0.303,4.883,36.926,13.123,71.036,0.373
0.022,0.912,0.359,4.333,32.776,11.23,70.175,0.672
0.018,0.929,0.315,7.69,39.551,13.55,70.718,0.803
0.032,0.873,0.377,7.507,32.104,12.024,69.604,1.143
0.003,0.944,0.32,-1.77,3.113,2.075,69.433,1.101
0,0.933,0.352,22.705,-5.066,-0.427,69.64,0.77
aX,aY,aZ,gX,gY,gZ,Roll,Pitch
0.005,0.928,0.321,10.376,-0.549,0.977,69.563,0.588
0.033,0.947,0.295,-32.959,2.258,-2.869,71.056,0.592
0.05,0.918,0.359,16.174,-11.536,-2.197,70.37,1.273
0.059,0.925,0.34,1.404,-44.25,-11.414,70.421,2.131
0.046,0.934,0.301,-5.066,-71.899,-19.104,70.646,2.719
0.009,0.969,0.149,-11.108,-53.955,-12.878,72.781,2.392
0,0.973,0.167,-2.136,-37.476,-7.141,75.758,1.655
0.003,0.971,0.197,-2.502,-31.921,-5.371,78.018,0.843
-0.023,0.981,0.128,-2.869,-17.212,-2.441,80.646,-0.161
-0.015,0.969,0.158,1.892,-6.531,-1.526,80.507,-0.51
-0.011,0.981,0.176,10.132,2.38,0.305,80.389,-0.668
-0.02,0.961,0.167,10.376,7.629,1.953,80.758,-1.004
-0.016,0.98,0.172,2.319,26.611,5.92,80.136,-0.902
0.01,0.958,0.236,20.935,41.809,10.986,79.026,-0.543
0.012,0.935,0.283,11.597,45.288,13.855,77.383,-0.21
0.022,0.947,0.322,3.784,50.903,15.93,75.14,0.403
0.046,0.932,0.343,-0.916,40.1,13.916,72.519,1.312
0.028,0.933,0.303,1.587,31.433,10.681,71.464,1.577
0.022,0.918,0.323,2.319,31.128,10.803,70.835,1.725
0.036,0.913,0.39,0.488,8.728,2.563,69.73,1.928
0.013,0.932,0.314,2.197,1.465,0,70.168,1.449
0.01,0.942,0.292,-1.038,-0.488,-0.427,70.381,1.182
aX,aY,aZ,gX,gY,gZ,Roll,Pitch
0.017,0.903,0.356,10.864,-1.77,0.488,69.85,1.107
0.063,0.885,0.419,-26.917,5.188,-2.014,69.283,1.504
0.034,0.922,0.328,-5.188,-1.953,-0.732,69.023,1.808
0.046,0.904,0.328,6.714,-18.86,-4.761,68.281,2.349
0.044,0.922,0.31,-2.319,-44.922,-11.353,68.972,2.75
0.012,0.955,0.234,0.854,-45.776,-10.376,71.956,1.995
0.003,0.942,0.265,-1.77,-42.175,-9.521,72.971,1.536
0,0.967,0.231,-3.113,-38.94,-8.301,74.63,0.848
-0.007,0.961,0.2,-1.953,-31.616,-6.531,76.341,0.096
0.001,0.963,0.185,6.775,-20.63,-2.991,77.059,-0.064
-0.022,0.961,0.19,-1.343,-8.85,-2.258,78.168,-0.419
-0.001,0.956,0.219,8.972,2.686,1.221,78.313,-0.435
-0.014,0.969,0.199,6.531,4.272,1.709,78.343,-0.532
-0.017,0.964,0.202,7.385,14.954,3.723,78.089,-0.789
-0.009,0.961,0.238,5.676,29.419,8.24,77.421,-0.597
-0.001,0.949,0.285,16.174,42.48,13.611,76.458,-0.584
0.014,0.923,0.355,5.676,38.208,13.489,74.113,-0.177
0.012,0.921,0.35,4.456,32.349,11.78,71.875,0.243
0.005,0.92,0.349,2.808,26.062,9.766,70.161,0.448
0.014,0.913,0.33,2.747,30.09,11.536,69.368,0.66
0.004,0.927,0.349,6.47,27.954,10.376,69.471,0.509
-0.002,0.83,0.392,0.488,2.258,0.854,68.415,0.315
0.005,0.92,0.346,0.122,1.648,-0.061,68.445,0.308
0.006,0.918,0.333,3.235,4.822,0.549,68.421,0.19
aX,aY,aZ,gX,gY,gZ,Roll,Pitch
-0.004,0.935,0.293,7.446,0,-0.122,69.245,0.073
0.016,0.915,0.314,-30.884,5.005,-0.916,70.755,0.326
0.02,0.912,0.284,-18.25,-5.737,-1.465,71.588,0.552
0.031,0.955,0.26,-0.977,-37.598,-5.249,72.773,0.92
0.02,0.955,0.207,8.118,-54.565,-10.071,74.055,1.274
0,0.927,0.169,5.981,-49.561,-10.01,76.183,1.056
-0.01,0.974,0.162,1.526,-36.865,-7.568,78.16,0.6
-0.014,0.953,0.189,0.183,-32.837,-6.409,79.199,-0.067
-0.014,0.972,0.192,-2.991,-27.771,-5.249,79.439,-0.555
-0.027,0.99,0.175,0.671,-18.982,-3.174,79.5,-0.95
-0.028,0.987,0.096,-0.549,-2.93,-1.221,80.448,-1.211
-0.016,0.958,0.205,8.85,4.578,1.221,80.233,-1.233
-0.018,0.97,0.175,17.517,17.761,4.028,80.469,-1.305
-0.007,0.952,0.247,10.376,32.227,8.728,79.376,-1.022
0.003,0.941,0.279,10.742,37.964,12.207,76.664,-0.568
0.005,0.923,0.325,8.301,40.405,14.282,74.838,-0.255
0.008,0.916,0.341,6.653,39.856,14.587,72.29,0.129
0.01,0.918,0.359,4.883,35.339,13.245,70.587,0.384
0.01,0.911,0.358,7.141,38.208,13.489,69.346,0.496
0.024,0.9,0.395,3.174,26.428,9.949,68.269,0.764
0.017,0.91,0.396,3.418,18.372,7.019,67.486,0.902
0.035,0.908,0.462,6.775,5.371,2.075,66.034,1.248
0.014,0.909,0.378,5.92,0.793,0.183,65.764,1.297
0.015,0.904,0.372,3.54,1.343,0.183,66.095,1.174
aX,aY,aZ,gX,gY,gZ,Roll,Pitch
-0.001,0.904,0.357,6.592,-0.671,-0.488,66.587,0.912
-0.015,0.915,0.349,-23.56,4.517,-1.343,68.171,0.189
0.022,0.909,0.365,-7.629,-3.601,-1.099,68.341,0.306
0.042,0.901,0.32,-1.465,-20.569,-5.005,69.029,0.704
0.047,0.942,0.316,1.587,-46.936,-11.536,69.751,1.409
0.008,0.943,0.262,3.723,-48.035,-13.245,71.05,1.75
0.013,0.956,0.26,-1.648,-41.992,-10.925,72.723,1.61
0.003,0.946,0.241,-2.747,-38.391,-9.827,74.056,1.035
-0.009,0.954,0.224,-0.305,-30.273,-7.324,75.426,0.216
-0.006,0.958,0.233,-1.77,-26.55,-5.493,75.893,0.016
-0.026,0.984,0.137,1.953,-0.854,-0.427,77.719,-0.555
-0.008,0.952,0.246,1.282,2.197,0.732,77.659,-0.712
-0.035,0.942,0.175,5.737,16.968,4.028,78.287,-1.098
-0.009,0.952,0.266,14.771,35.034,10.498,77.795,-1.142
0.009,0.919,0.357,18.616,30.09,9.949,74.488,-0.628
0,0.921,0.325,3.906,24.231,8.789,73.247,-0.52
-0.003,0.927,0.34,5.127,32.043,11.719,70.886,-0.041
0.011,0.918,0.36,4.333,29.114,10.986,69.439,0.249
0.002,0.91,0.363,5.798,31.982,11.963,69.302,0.153
0.026,0.91,0.374,1.404,30.64,11.902,68.583,0.529
0.021,0.895,0.432,6.531,23.254,9.216,67.166,0.868
0.003,0.891,0.389,-1.343,2.258,-0.183,66.62,0.748
0.007,0.895,0.382,0.916,0.854,0.122,66.287,0.819
0.002,0.912,0.38,4.822,0.732,0,66.228,0.479
aX,aY,aZ,gX,gY,gZ,Roll,Pitch
0.004,0.998,0.328,19.653,-1.648,0.732,68.204,0.228
0.005,0.932,0.313,-22.095,3.113,-1.892,69.436,0.259
0.025,0.917,0.31,-5.432,-2.747,-0.488,70.512,0.523
0.049,0.871,0.368,37.903,-27.161,-6.47,70.447,1.204
0.031,0.945,0.274,-0.488,-51.636,-13.794,70.9,1.636
0.033,0.961,0.232,-4.761,-56.335,-13.855,72.121,2.05
0.001,0.94,0.222,2.136,-48.401,-11.902,73.491,1.689
0.002,0.972,0.227,-5.31,-38.391,-9.827,75.924,0.985
-0.014,0.973,0.185,-6.104,-30.334,-6.104,77.305,0.323
-0.03,0.987,0.126,1.404,-2.075,-0.732,78.884,-0.587
-0.005,0.925,0.26,3.174,0.916,0.488,78.287,-0.669
-0.015,0.98,0.197,2.258,4.639,1.282,78.713,-0.914
-0.017,0.964,0.214,17.517,26.367,7.507,78.272,-0.964
0.006,0.933,0.293,11.23,37.048,11.597,75.751,-0.451
0.015,0.922,0.344,9.094,37.292,13.428,74.571,-0.167
0.008,0.923,0.349,7.263,36.865,13.611,72.217,0.16
0.025,0.912,0.364,2.869,26.367,10.193,69.886,0.774
0.032,0.908,0.327,12.878,34.241,12.634,69.286,1.157
0.021,0.901,0.366,1.892,32.532,12.756,68.871,1.249
0.019,0.903,0.4,2.686,28.748,11.597,68.058,1.407
0.009,0.916,0.367,-5.127,3.357,1.221,68.061,1.167
0.019,0.896,0.371,7.08,-1.099,1.221,67.402,0.979
aX,aY,aZ,gX,gY,gZ,Roll,Pitch
0,0.909,0.372,8.362,-0.183,0,67.38,0.668
0.016,0.981,0.314,-6.409,0.427,-1.465,68.958,0.622
0.033,0.878,0.356,-29.175,-7.812,-2.38,68.887,0.979
0.039,0.959,0.297,-7.019,-32.349,-6.714,70.199,1.266
0.044,0.956,0.273,6.348,-52.124,-9.705,71.711,1.908
0.016,0.968,0.149,-10.254,-52.551,-10.437,73.932,1.945
0.007,0.961,0.169,0.977,-38.94,-6.592,76.902,1.558
0.008,0.973,0.176,1.648,-37.659,-6.409,78.701,1.11
-0.017,0.966,0.178,-1.953,-30.151,-3.967,80.142,0.219
-0.012,0.97,0.14,1.099,-21.667,-3.235,80.276,-0.192
-0.022,0.982,0.126,2.197,-7.935,-2.014,80.93,-0.609
-0.003,0.957,0.209,19.775,10.864,3.418,80.401,-0.778
-0.019,0.967,0.205,7.446,19.653,5.127,80.019,-0.807
-0.005,0.952,0.252,8.85,28.809,8.057,78.388,-0.71
-0.002,0.934,0.276,8.118,33.386,10.071,76.106,-0.421
0.01,0.936,0.294,4.883,34.607,11.536,74.832,-0.23
0.002,0.943,0.303,4.883,39.246,12.451,73.353,0.073
0.021,0.929,0.347,8.118,40.1,13.55,71.917,0.457
0.021,0.918,0.343,4.211,29.419,10.315,70.914,0.784
0.021,0.912,0.355,1.648,21.179,7.263,69.967,0.941
0.002,0.918,0.353,5.615,14.16,5.127,69.166,0.949
0.011,0.903,0.361,4.944,5.249,1.892,68.856,0.804
0,0.931,0.336,2.014,8.728,2.686,69.028,0.49
0.001,0.907,0.347,5.066,-2.563,0.122,69.111,0.2
aX,aY,aZ,gX,gY,gZ,Roll,Pitch
0.023,0.908,0.346,13.977,-0.305,0.61,69.15,0.505
-0.036,0.829,0.261,-10.01,4.639,-0.61,70.152,-0.197
0.023,0.926,0.331,-11.963,-2.563,-0.061,70.195,0.149
0.011,0.926,0.41,-6.165,-10.01,-1.526,69.402,0.31
0.045,0.917,0.33,1.526,-39.795,-11.23,69.657,0.631
0.043,0.96,0.275,1.465,-47.058,-12.573,70.066,1.753
0.031,0.93,0.285,5.188,-55.664,-14.038,70.7,1.882
0.002,0.956,0.211,-6.775,-47.058,-12.024,73.592,1.762
-0.002,0.963,0.219,2.808,-33.081,-6.287,75.39,1.071
-0.008,0.956,0.221,0.61,-21.912,-3.906,76.175,0.332
-0.024,0.967,0.172,-1.953,-15.32,-3.357,77.907,-0.475
-0.013,0.972,0.23,18.25,3.235,1.404,77.668,-0.691
-0.012,0.963,0.247,9.216,5.371,1.526,77.273,-0.826
-0.016,0.966,0.23,8.789,19.165,5.676,77.166,-0.931
-0.006,0.93,0.265,13.428,34.973,12.085,75.745,-0.667
0.003,0.948,0.363,13.367,49.072,17.456,73.814,-0.439
0.026,0.901,0.384,9.277,41.504,17.151,71.651,0.113
0.02,0.895,0.38,-1.16,45.532,19.531,69.252,0.636
0.027,0.886,0.462,19.775,35.095,14.404,66.339,1.105
0.019,0.891,0.399,0.305,27.832,13.367,65.505,1.35
0.017,0.879,0.435,3.601,28.198,12.573,64.704,1.206
0.017,0.882,0.434,-5.188,6.165,2.93,63.904,1.16
0.016,0.845,0.417,3.296,0,-0.793,64.251,1.007
0.025,0.894,0.423,24.231,-5.981,-1.221,63.948,1.099
aX,aY,aZ,gX,gY,gZ,Roll,Pitch
0.011,0.888,0.389,10.132,-0.244,0.977,64.616,1.018
0.017,0.906,0.35,-22.4,2.93,-1.648,65.903,1.018
0.026,0.906,0.349,-7.507,-2.747,-1.282,67.16,1.162
0.041,0.878,0.389,12.451,-15.137,-4.089,67.518,1.405
0.038,0.939,0.321,1.404,-37.781,-12.024,68.695,1.791
0.037,0.923,0.336,0.366,-49.988,-14.832,68.951,2.079
0.027,0.941,0.318,-4.089,-49.316,-15.015,69.556,2.082
0.025,0.948,0.273,7.141,-45.898,-13.245,71.506,1.834
-0.008,0.947,0.252,-4.7,-36.743,-9.827,72.55,1.184
-0.016,0.957,0.22,-6.531,-26.978,-6.775,74.332,0.423
-0.01,0.98,0.244,9.277,1.831,0.916,75.524,-0.12
-0.01,0.956,0.26,1.587,1.16,0.366,75.723,-0.635
-0.014,0.964,0.219,3.052,15.991,5.127,76.235,-0.729
-0.006,0.932,0.277,4.333,33.63,11.353,75.354,-0.6
0.005,0.933,0.332,10.01,40.161,13.977,73.961,-0.382
0.015,0.912,0.348,7.324,36.499,13.672,72.555,-0.011
0.015,0.921,0.351,5.127,41.016,15.808,70.522,0.41
0.022,0.903,0.384,5.249,36.072,14.343,68.912,0.823
0.036,0.895,0.401,5.127,28.015,11.658,67.738,1.285
0.013,0.887,0.413,-0.122,12.756,4.883,66.716,1.249
0.005,0.897,0.264,13.55,33.02,12.939,67.769,1.122
0,0.953,0.362,-3.296,0.916,-0.366,68.352,0.789
0.015,0.865,0.388,18.921,-2.075,1.16,68.379,0.477
aX,aY,aZ,gX,gY,gZ,Roll,Pitch
0.01,0.9,0.368,8.362,-1.038,-1.16,69.07,0.446
0.015,0.928,0.352,-22.827,2.869,-1.77,68.031,0.58
0.077,0.899,0.452,1.953,-14.832,-0.977,66.457,1.709
0.043,0.914,0.346,-5.737,-48.645,-14.709,67.276,2.104
0.036,0.955,0.254,-4.761,-53.589,-15.564,69.061,2.468
0.016,0.978,0.234,-4.578,-41.199,-10.864,70.893,2.492
0.009,0.947,0.269,6.104,-25.208,-5.676,73.72,1.509
0.023,0.963,0.288,-1.526,-35.583,-9.338,74.734,1.213
-0.021,0.97,0.185,-5.127,-24.902,-6.042,75.791,0.387
-0.011,0.968,0.224,15.991,2.38,1.099,75.909,-0.012
-0.009,0.954,0.263,1.587,2.38,0.671,76.02,-0.269
-0.015,0.961,0.217,3.296,17.761,5.249,76.984,-0.824
-0.008,0.954,0.257,8.362,37.903,12.268,75.93,-0.63
0.004,0.917,0.33,16.968,39.795,14.16,74.249,-0.413
0.009,0.914,0.357,5.005,33.508,12.939,72.765,-0.157
0.004,0.924,0.357,7.751,32.288,12.085,70.658,0.123
0.011,0.908,0.375,3.479,32.471,13,68.806,0.404
0.01,0.911,0.381,8.301,30.029,11.902,68.087,0.486
0.014,0.883,0.422,5.92,21.912,9.766,67.051,0.565
0.018,0.899,0.434,-3.418,14.465,5.798,65.874,0.762
0.008,0.906,0.387,2.93,1.099,0.122,65.701,0.712
0.021,0.849,0.456,33.569,-2.808,1.526,64.321,0.881
aX,aY,aZ,gX,gY,gZ,Roll,Pitch
0,0.909,0.343,17.029,-1.892,-0.122,65.525,0.681
0.007,0.899,0.385,-21.301,3.662,-0.854,66.19,0.532
0.016,0.878,0.405,-2.747,-2.258,-0.854,65.786,0.648
0.034,0.866,0.361,12.573,-25.024,-7.019,67.177,0.844
0.034,0.941,0.289,-5.005,-46.021,-12.268,68.087,1.349
0.025,0.938,0.287,9.46,-53.406,-12.878,69.628,1.616
0.009,0.978,0.201,-11.78,-46.692,-11.719,72.952,1.509
-0.011,0.979,0.188,-2.319,-25.33,-5.005,75.867,0.841
0.002,0.948,0.238,1.343,-29.419,-5.676,76.621,0.372
-0.005,0.974,0.172,-6.836,-28.076,-4.944,78.356,-0.076
-0.024,0.965,0.128,0.122,-17.944,-2.93,79.346,-0.555
-0.015,0.985,0.157,5.737,1.648,0.549,79.796,-0.619
-0.018,0.981,0.15,4.211,4.272,0.549,81.112,-0.906
-0.015,0.995,0.118,14.038,30.823,6.531,81.921,-1.041
0.005,0.933,0.258,21.362,47.546,13.794,80.04,-0.632
0.013,0.929,0.338,8.789,40.344,13.367,77.327,-0.228
0.003,0.934,0.344,-4.639,32.532,10.376,74.418,0.076
0.006,0.94,0.301,5.615,26.733,8.911,71.636,0.382
0.002,0.933,0.311,7.812,31.921,10.437,70.903,0.341
0.018,0.907,0.354,8.179,29.968,11.292,70.577,0.414
0.006,0.903,0.378,-0.549,13.123,5.31,69.966,0.462
-0.008,0.927,0.309,1.526,20.996,8.118,69.785,0.252
0.026,0.872,0.455,1.953,13.855,5.371,67.486,0.61
0.01,0.924,0.354,17.09,-4.272,-0.549,67.578,0.487
aX,aY,aZ,gX,gY,gZ,Roll,Pitch
-0.03,0.921,0.342,8.789,0,0,68.157,-0.03
0.009,0.928,0.332,-24.719,3.784,-2.563,67.849,0.22
0.014,0.898,0.355,1.343,-9.033,-2.014,69.342,0.045
0.017,0.909,0.373,-2.014,-38.269,-11.414,69.004,0.159
0.023,0.935,0.295,-4.456,-48.767,-14.526,69.709,0.924
0.003,0.95,0.256,-4.456,-45.166,-12.329,70.877,0.841
0.002,0.965,0.222,-5.493,-38.818,-9.46,73.035,0.657
0.001,0.97,0.191,-4.211,-28.625,-5.92,75.83,0.412
-0.006,0.965,0.209,1.77,-23.682,-4.15,77.149,-0.012
-0.014,0.967,0.184,-0.793,-19.165,-3.235,78.221,-0.259
-0.019,0.983,0.131,2.258,-3.418,-1.16,79.555,-0.556
-0.01,0.956,0.22,4.15,0.549,-0.305,79.093,-0.718
-0.017,0.982,0.179,12.634,6.836,2.136,79.562,-0.863
-0.021,0.958,0.193,8.972,30.457,7.996,79.401,-0.962
0.002,0.955,0.276,10.925,40.527,12.329,77.294,-0.659
0.006,0.919,0.304,13.123,41.931,14.16,75.994,-0.427
0.023,0.926,0.349,8.057,43.091,15.808,73.38,0.146
0.01,0.894,0.408,8.972,35.461,14.038,70.095,0.586
0.011,0.883,0.354,-2.747,26.855,11.353,68.652,0.72
0.016,0.896,0.41,-5.005,27.771,9.766,67.083,0.87
0.004,0.92,0.355,7.874,5.798,2.625,66.977,0.602
-0.01,0.908,0.354,9.033,3.54,1.404,67.785,0.312
-0.001,0.895,0.381,-3.784,-0.427,-0.549,67.473,0.132
0.002,0.905,0.373,3.052,1.526,0.61,68.02,-0.073
-0.001,0.91,0.372,28.564,-4.15,0.671,67.732,-0.154
aX,aY,aZ,gX,gY,gZ,Roll,Pitch
0.039,0.901,0.394,26.855,-4.395,1.953,67.158,0.57
0.007,0.887,0.412,-33.508,5.92,-2.075,66.698,0.695
0.014,0.879,0.392,0.61,-0.183,-0.183,66.282,0.872
0.007,0.942,0.282,-31.555,-10.559,-4.089,67.682,0.986
0.021,0.931,0.328,-2.991,-29.114,-7.019,68.758,0.715
0.024,0.944,0.256,-2.625,-51.575,-12.268,71.184,0.955
0.023,0.971,0.217,2.136,-54.26,-11.597,74.017,1.076
0.012,0.968,0.21,-4.578,-47.791,-10.315,75.121,1.149
0.004,0.978,0.164,-1.465,-36.438,-6.409,77.597,0.901
-0.025,0.964,0.147,-0.305,-25.513,-4.211,79.245,0.195
-0.022,0.984,0.112,-4.761,-10.681,-2.258,80.769,-0.45
-0.008,0.952,0.205,13.489,2.747,0.854,80.776,-0.737
-0.009,0.969,0.194,9.338,4.7,0.793,80.301,-0.923
-0.017,0.964,0.166,15.564,18.86,4.639,80.029,-0.812
-0.014,0.965,0.246,15.747,41.504,11.963,78.074,-0.704
0.01,0.914,0.34,13.306,39.673,13.611,76.051,-0.445
0.002,0.918,0.344,4.883,31.921,11.597,73.761,-0.282
-0.005,0.918,0.344,5.493,29.663,10.925,71.082,-0.101
0.006,0.93,0.342,9.766,30.945,11.597,69.588,0.191
0.019,0.894,0.374,7.019,35.889,14.465,69.016,0.318
0.002,0.903,0.392,3.662,26.794,10.864,68.273,0.317
0.009,0.901,0.411,2.625,16.296,7.263,67.271,0.518
0.002,0.883,0.423,4.578,7.507,3.54,65.908,0.465
0.001,0.891,0.408,2.258,1.099,-0.427,65.444,0.201
aX,aY,aZ,gX,gY,gZ,Roll,Pitch
-0.002,0.889,0.41,3.967,0.183,0.061,65.119,0.142
0.017,0.869,0.378,-33.691,1.953,-2.075,65.365,0.261
0.008,0.879,0.36,-9.277,-2.38,-0.671,66.192,0.356
0.04,0.87,0.291,2.686,-23.254,-4.639,67.666,0.95
0.041,0.937,0.299,-3.54,-51.758,-11.353,69.451,1.586
0.012,0.958,0.17,-2.319,-59.814,-12.695,72.835,1.506
0.005,0.971,0.13,-6.958,-45.715,-8.789,76.512,1.446
0.018,0.98,0.177,-0.854,-37.537,-5.127,78.527,1.107
-0.011,0.974,0.095,-2.808,-38.574,-5.127,81.599,0.355
-0.051,0.986,0.054,6.775,-1.526,-0.183,83.322,-0.565
-0.015,0.972,0.154,1.587,1.404,0.305,82.953,-0.848
-0.028,0.976,0.104,10.742,10.742,2.686,83.855,-1.527
-0.008,0.977,0.167,18.066,43.579,9.888,82.86,-1.485
0.009,0.937,0.271,15.259,46.814,13.123,79.758,-0.608
0.012,0.929,0.309,7.385,39.185,12.329,77.42,-0.222
0.002,0.945,0.315,7.812,33.752,10.925,74.333,0.219
-0.001,0.926,0.314,8.667,35.889,11.841,72.066,0.331
0.009,0.902,0.325,6.287,40.894,13,71.156,0.329
0.029,0.907,0.373,3.54,28.687,11.292,70.166,0.583
0.052,0.903,0.468,5.127,8.667,3.54,67.827,1.309
0.013,0.908,0.346,3.479,0.305,-0.183,67.287,1.505
0.012,0.918,0.344,3.784,0.305,-0.549,67.117,1.542
-0.001,0.914,0.342,2.686,0,0.244,67.594,1.102
aX,aY,aZ,gX,gY,gZ,Roll,Pitch