aX,aY,aZ,gX,gY,gZ,Roll,Pitch
-0.058,0.983,0.127,23.315,-3.296,-0.61,81.912,-3.334
-0.055,0.956,0.155,-24.231,4.089,0.061,81.079,-3.306
-0.053,0.989,0.076,0.793,1.465,0.305,82.308,-3.226
-0.097,0.996,0.103,-5.92,3.357,-1.282,82.284,-3.815
-0.067,0.998,0.064,4.456,3.784,-1.709,83.008,-3.943
-0.052,0.989,0.089,8.789,7.202,-0.61,83.857,-3.864
-0.159,0.988,0.14,9.399,5.737,-3.052,82.185,-5.367
-0.028,0.964,0.13,8.728,8.118,-2.625,82.447,-4.42
0.008,0.989,0.151,5.005,9.155,-0.488,81.892,-3.332
-0.013,0.963,0.153,7.69,6.897,3.052,81.178,-2.786
0.022,0.978,0.189,1.831,0.916,1.648,80.897,-0.158
-0.024,0.969,0.191,-2.197,-2.563,2.441,80.044,-0.09
0.004,0.963,0.141,0.366,-6.653,-1.709,80.118,-0.155
0,0.977,0.165,4.944,-1.038,0.427,79.993,0.03
-0.022,0.978,0.155,0.305,-1.343,-0.793,80.463,-0.621
-0.016,0.981,0.155,1.526,-0.916,-0.916,81.01,-0.51
-0.032,0.973,0.157,3.601,2.319,0.854,80.761,-1.032
-0.02,0.968,0.164,6.226,3.235,1.648,80.718,-1.315
-0.014,0.962,0.168,3.662,2.869,1.587,80.504,-1.197
-0.021,0.961,0.187,3.601,2.808,1.099,80,-1.275
-0.035,0.969,0.181,1.404,1.282,0.305,79.65,-1.315
-0.032,0.973,0.171,2.197,1.221,-0.549,79.532,-1.488
-0.028,0.969,0.186,2.869,2.136,-0.183,79.264,-1.681
-0.031,0.969,0.174,2.563,0.427,-1.038,79.441,-1.819
-0.018,0.97,0.179,1.038,-0.427,-1.16,79.509,-1.567
-0.021,0.972,0.183,-0.061,-1.038,-1.892,79.362,-1.414
-0.023,0.969,0.187,1.404,0.183,-1.038,79.36,-1.341
-0.015,0.97,0.185,1.648,-0.183,-1.038,79.229,-1.103
0.006,0.951,0.194,2.014,1.038,15.442,78.992,-0.756
-0.002,0.951,0.198,0.854,1.465,0.854,78.737,-0.477
-0.013,0.968,0.172,4.333,0.977,1.709,78.96,-0.332
-0.033,0.954,0.198,2.197,2.014,0.793,78.715,-0.603
-0.02,0.974,0.161,4.456,2.136,0.183,79.232,-0.989
-0.02,0.964,0.186,-0.488,-0.488,-0.793,79.41,-1.254
-0.02,0.957,0.201,9.46,3.845,-0.916,78.956,-1.361
0.003,0.961,0.187,3.601,1.709,-1.526,79.184,-0.834
0.001,0.945,0.192,-2.747,0.488,2.014,78.664,-0.534
-0.045,0.963,0.186,5.127,5.066,2.258,78.644,-0.898
-0.027,0.951,0.187,5.127,0.793,-1.221,78.818,-0.999
-0.018,0.955,0.201,2.808,2.869,0.549,78.572,-1.312
0.006,0.963,0.176,4.089,0.305,-1.343,78.872,-1.223
-0.011,0.952,0.217,-1.221,0.854,-0.977,78.425,-0.732
0.018,0.962,0.204,0.61,-0.793,-1.343,78.231,-0.077
-0.005,0.97,0.201,4.517,-1.587,0.488,78.275,0.119
-0.006,0.95,0.209,5.859,3.296,0.793,77.756,-0.066
-0.017,0.962,0.224,3.296,2.136,0,77.699,-0.144
-0.035,0.96,0.238,5.615,4.883,1.404,77.185,-0.912
-0.014,0.945,0.226,2.319,3.418,1.465,76.738,-1.052
-0.028,0.885,0.273,-21.057,-6.653,-0.549,75.572,-1.392
-0.011,0.969,0.163,-3.296,-1.892,0.366,76.47,-1.308
-0.032,0.94,0.171,4.517,-0.793,0.732,77.373,-1.276
-0.039,0.967,0.187,1.221,-1.77,0.305,77.962,-1.643
-0.053,0.967,0.19,0.732,-1.221,-0.732,79.335,-1.979
-0.042,0.963,0.169,-0.427,-4.517,-0.244,79.143,-2.44
-0.07,0.984,0.178,5.92,-4.7,1.343,79.032,-2.963
aX,aY,aZ,gX,gY,gZ,Roll,Pitch
-0.048,0.953,0.208,7.202,-0.183,0.488,78.673,-3.103
-0.047,0.951,0.198,-9.827,2.93,-0.488,78.535,-3.03
-0.033,0.941,0.177,-2.808,-1.465,-1.587,78.4,-2.904
-0.056,0.961,0.167,-1.038,-1.709,0.244,78.528,-2.71
-0.03,0.979,0.14,4.761,4.028,-2.197,79.625,-2.441
-0.042,0.957,0.182,7.385,5.005,-1.648,79.885,-2.352
-0.087,0.966,0.187,8.118,5.188,-0.854,79.601,-3.123
0.013,0.955,0.182,10.071,7.202,-2.014,79.627,-2.12
-0.031,0.909,0.203,16.479,6.775,-1.221,78.526,-2.169
0.041,0.949,0.238,3.967,2.869,0.549,77.86,-0.948
0.048,0.969,0.214,0.61,2.075,0.977,77.472,1.047
-0.017,0.963,0.219,3.052,0.854,0.122,77.006,0.595
-0.021,0.953,0.233,5.676,2.136,-1.343,76.728,0.74
-0.06,0.931,0.241,8.301,2.136,-1.77,76.621,-0.731
0.002,0.943,0.246,6.042,2.686,-1.831,76.023,-1.413
0.008,0.938,0.263,4.089,2.991,-0.488,75.333,-1.049
0.001,0.949,0.255,-2.869,2.502,4.639,75.012,-0.727
-0.005,0.951,0.259,2.319,3.296,1.77,74.85,0.089
0.002,0.945,0.26,2.625,3.296,1.16,74.662,0.086
-0.017,0.941,0.251,-0.916,-5.188,-1.953,74.842,-0.275
-0.003,0.967,0.238,5.127,-7.69,-1.526,75.155,-0.332
0.008,0.941,0.262,-1.648,-4.089,-2.075,75.085,-0.143
0.008,0.949,0.233,-0.671,-0.488,2.258,75.481,-0.053
-0.028,0.96,0.236,1.404,1.526,1.282,75.757,-0.215
-0.008,0.949,0.232,1.526,1.831,0.305,75.78,-0.291
0.014,0.957,0.227,1.953,3.723,1.953,76.337,-0.203
-0.037,0.965,0.233,2.441,2.319,0.549,76.374,-0.857
-0.017,0.967,0.228,4.15,2.319,-1.709,76.527,-0.703
0,0.949,0.248,2.502,1.099,-1.77,76.3,-0.586
0.015,0.957,0.238,1.343,0.61,0.244,76.134,-0.584
-0.007,0.958,0.243,-0.916,0.549,2.808,75.972,-0.143
0.004,0.966,0.216,4.028,0.305,-0.366,76.141,0.16
-0.003,0.947,0.245,7.507,3.54,0.183,76.18,0.122
-0.046,0.959,0.243,8.362,4.15,2.502,76.1,-0.75
0.052,0.965,0.256,0.977,-3.601,-1.038,75.959,0.106
-0.016,0.95,0.279,-3.662,0.854,1.282,75.005,-0.173
-0.012,0.939,0.284,5.737,1.526,0.061,74.422,-0.309
0.002,0.952,0.27,2.38,0.305,0.549,74.022,0.382
-0.017,0.961,0.244,-3.601,-1.16,-0.916,74.163,-0.618
-0.008,0.947,0.259,-0.244,1.343,-1.038,74.44,-0.504
-0.014,0.955,0.24,-1.282,0.122,0.61,75.114,-0.526
-0.015,0.954,0.257,0,2.319,0.854,75.286,-0.773
-0.024,0.952,0.236,0.244,2.625,1.099,75.358,-0.883
-0.032,0.965,0.229,-1.404,0.427,-1.953,75.813,-1.237
-0.019,0.965,0.217,1.77,1.892,0.305,76.169,-1.312
-0.047,0.956,0.249,2.747,1.77,0.061,76.236,-1.775
0.005,0.949,0.229,6.165,2.808,-0.427,76.373,-1.345
-0.01,0.91,0.267,10.193,4.944,0.61,75.681,-1.04
-0.013,0.957,0.258,5.005,0.854,1.282,75.07,-0.953
-0.012,0.955,0.271,4.15,1.77,0.305,74.778,-0.448
-0.018,0.946,0.263,2.075,-4.333,-1.343,74.282,-0.785
-0.007,0.952,0.26,-2.197,-0.488,-0.244,74.534,-0.722
-0.023,0.927,0.27,5.371,0.427,1.16,74.247,-0.866
-0.023,0.947,0.271,9.094,-0.427,-0.183,74.211,-1.021
-0.016,0.944,0.295,1.099,-1.709,-1.709,73.752,-0.992
0.004,0.986,0.32,10.315,-5.737,3.052,73.073,-0.83
-0.045,0.919,0.303,-3.54,-4.028,-1.709,72.564,-1.149
-0.036,0.938,0.284,-0.122,-0.427,-2.014,72.336,-1.342
-0.016,0.95,0.271,0.732,0.061,-1.099,72.689,-1.346
-0.084,0.937,0.287,8.362,-4.822,2.686,72.79,-2.654
aX,aY,aZ,gX,gY,gZ,Roll,Pitch
-0.034,0.933,0.28,7.507,1.099,0.854,73.192,-2.486
-0.052,0.941,0.329,-24.719,5.127,-3.845,72.546,-2.701
-0.034,0.948,0.218,7.874,3.54,0.305,73.218,-2.971
-0.054,0.953,0.236,11.658,10.376,-2.502,74.058,-2.531
-0.016,0.931,0.267,6.409,5.188,-1.953,74.274,-2.283
-0.035,0.942,0.27,5.249,2.197,-2.197,75.135,-2.046
0.041,0.951,0.279,8.118,3.113,0.793,74.407,-0.952
0,0.923,0.332,5.249,3.906,1.038,72.971,-0.157
-0.014,0.941,0.313,-1.709,-1.709,1.221,72.373,-0.122
0.017,0.933,0.286,1.77,3.784,1.648,72.108,0.639
0.036,0.925,0.291,3.662,4.333,-0.183,71.82,0.57
-0.012,0.92,0.31,-0.61,-1.282,-0.977,72.109,0.394
-0.012,0.946,0.279,-1.099,-3.418,-1.831,72.607,0.42
0.025,0.943,0.275,0,-2.197,-1.587,72.803,0.533
0.02,0.942,0.276,5.005,1.404,1.953,73.091,0.307
0.005,0.934,0.276,3.296,2.014,0.977,73.625,0.552
-0.048,0.943,0.282,2.014,0.244,-1.953,73.583,0.039
0.013,0.961,0.259,0.854,-2.197,-2.258,73.878,-0.135
0.031,0.942,0.282,4.456,3.723,-2.319,73.801,0.025
0.048,0.968,0.263,-0.122,-1.587,0.916,74.098,0.651
0.026,0.95,0.264,-1.77,-0.244,12.878,74.286,1.717
-0.004,0.946,0.246,2.563,1.465,0.244,74.428,1.475
-0.02,0.955,0.24,7.202,1.099,0.61,75.104,0.733
-0.004,0.956,0.246,4.578,0.244,1.404,75.317,-0.025
0.022,0.954,0.253,2.808,0.793,-1.831,75.492,-0.087
0.047,0.955,0.271,0.793,-0.305,-1.221,75.17,0.644
-0.001,0.962,0.233,0.549,0,0.488,75.29,0.919
0.002,0.948,0.248,2.014,0.916,1.343,75.226,1.009
0.014,0.956,0.237,2.441,1.587,-0.122,75.468,0.893
0.009,0.953,0.247,0.488,0.427,0.305,75.813,0.346
0.01,0.95,0.233,3.357,2.258,1.16,75.763,0.511
-0.013,0.958,0.226,0.122,-0.183,-1.709,76.123,0.285
-0.013,0.949,0.209,-4.456,-1.282,0.366,76.494,-0.105
-0.038,0.974,0.211,-4.089,-1.587,0.244,77.062,-0.781
0.007,0.957,0.209,0.916,-2.258,-1.282,77.424,-0.825
-0.028,0.96,0.215,-1.526,-1.587,-0.732,77.57,-1.041
-0.002,0.959,0.206,2.014,1.709,-0.854,77.651,-0.882
-0.026,0.954,0.209,3.784,1.709,0.732,77.617,-0.724
-0.009,0.959,0.205,2.991,-0.427,0.183,77.66,-0.966
0.011,0.973,0.197,-2.808,-3.418,0.366,77.984,-0.397
-0.001,0.981,0.186,-1.526,-2.319,0.244,78.333,-0.383
-0.014,0.914,0.204,-19.775,0.366,-1.465,78.295,-0.209
0.007,0.978,0.159,12.024,1.099,-0.549,79.007,0.037
0.049,0.962,0.178,0.305,1.526,2.747,79.235,0.602
-0.035,0.983,0.188,10.254,1.953,1.831,79.231,0.104
-0.063,0.937,0.179,-0.549,-1.77,2.625,79.641,-0.602
-0.029,0.964,0.184,-1.404,-0.732,-1.526,79.209,-1.136
-0.032,0.965,0.182,6.836,-1.465,-0.732,78.969,-2.328
-0.014,0.948,0.185,-0.854,0.488,-1.953,78.98,-2.031
-0.03,0.97,0.178,6.409,-0.916,0.244,79.153,-1.536
-0.111,0.949,0.239,6.165,-7.202,1.892,78.113,-2.738
aX,aY,aZ,gX,gY,gZ,Roll,Pitch
-0.023,0.958,0.206,3.174,0.916,0.61,77.787,-2.6
-0.034,0.978,0.2,-44.678,4.272,-4.089,77.601,-2.88
-0.009,0.94,0.173,15.93,2.563,-0.183,77.642,-2.598
-0.041,0.988,0.155,10.742,8.362,-2.625,79.125,-1.559
-0.019,0.96,0.181,8.179,4.944,-0.122,79.503,-1.499
0.004,0.969,0.198,9.705,8.789,-0.61,79.581,-0.945
0.029,0.966,0.224,8.057,10.132,0.305,78.972,-0.383
0.044,0.949,0.227,8.728,7.874,-0.854,77.807,0.848
0.027,0.947,0.244,3.418,2.686,0.671,76.809,1.52
0.008,0.952,0.25,3.845,0.061,0.549,76.007,1.582
0.018,0.949,0.254,6.531,0.854,0.61,75.528,1.429
0.019,0.951,0.263,2.136,-0.061,0.61,75.054,1.064
0.018,0.943,0.271,1.709,-1.221,0.977,74.67,0.933
0.017,0.946,0.263,2.991,-0.366,-0.61,74.454,1.067
0.025,0.943,0.267,5.798,2.075,-0.793,74.241,1.173
0.022,0.949,0.276,3.357,0.244,-1.038,74.048,1.217
0.023,0.935,0.276,2.197,-0.977,1.221,73.934,1.283
0.017,0.946,0.274,1.587,-1.282,0.427,73.787,1.285
0.014,0.941,0.28,7.629,2.563,0.854,73.615,1.116
0.023,0.942,0.283,2.075,-0.977,0.61,73.499,1.132
0.035,0.939,0.293,5.493,2.014,1.038,73.266,1.303
0.017,0.932,0.299,3.052,1.648,0.183,72.854,1.305
-0.003,0.939,0.288,-0.854,-1.404,0.427,72.745,1.063
0.017,0.942,0.283,1.038,-0.916,-0.732,72.747,0.972
0.015,0.944,0.284,1.343,-0.366,-1.038,72.909,0.689
0.01,0.938,0.281,1.282,-0.61,-0.977,73.189,0.587
0.014,0.943,0.278,0.732,-0.488,-0.61,73.335,0.832
0.025,0.937,0.279,1.526,0.854,-0.183,73.362,0.948
0.038,0.92,0.276,-0.671,2.197,2.686,73.346,1.287
0.01,0.946,0.263,4.578,1.282,-0.366,73.63,1.283
0.008,0.945,0.266,5.249,0.305,-0.427,73.822,1.194
0.015,0.946,0.266,5.005,0.305,-0.549,74.049,1.04
0.017,0.947,0.267,3.357,0.488,-0.732,74.297,0.73
0.022,0.94,0.272,2.319,0.305,-0.183,74.148,0.907
0.025,0.943,0.271,1.16,0.61,0.305,74.043,1.158
0.014,0.95,0.27,2.686,0.488,0.793,74.008,1.147
0.015,0.948,0.271,2.93,0.793,0.732,73.968,1.115
0.017,0.944,0.27,2.319,1.099,-0.122,74.014,1.03
0.016,0.943,0.272,2.747,1.648,-0.061,74.017,0.903
0.018,0.939,0.274,2.686,2.136,0.61,73.914,0.967
0.027,0.94,0.271,2.747,2.258,0.732,73.872,1.138
0.01,0.949,0.271,2.747,2.38,0.61,73.882,1.046
0.002,0.937,0.28,2.38,2.197,1.221,73.754,0.831
0.002,0.943,0.276,2.747,0.793,0.122,73.756,0.588
0.014,0.944,0.266,1.892,1.343,0.61,73.843,0.41
0.008,0.943,0.268,-2.686,-0.488,0.854,73.864,0.371
0.013,0.955,0.254,1.709,0.671,-0.061,74.301,0.541
0.011,0.948,0.259,3.357,1.709,-0.183,74.543,0.681
-0.005,0.947,0.259,4.395,0.916,-1.038,74.664,0.402
0.024,0.946,0.266,0.61,0,-0.61,74.687,0.634
0,0.938,0.261,2.686,4.211,2.38,74.523,0.446
0.012,0.955,0.255,3.784,1.404,-0.244,74.613,0.449
0.002,0.937,0.262,-3.052,-0.977,1.465,74.523,0.543
0.008,0.941,0.26,2.747,1.465,0,74.599,0.317
-0.001,0.959,0.257,-7.324,-2.808,-0.549,74.742,0.299
0.009,0.96,0.23,-1.587,-0.61,1.221,75.114,0.267
-0.001,0.959,0.226,0.366,0.061,-0.305,75.707,0.234
-0.001,0.951,0.219,3.723,1.404,-0.793,76.329,0.103
0.001,0.959,0.218,0.977,0.977,0.305,76.874,0.126
-0.002,0.953,0.219,1.526,1.282,1.343,77.004,-0.039
-0.005,0.969,0.201,2.38,1.77,0.183,77.39,-0.107
0,0.959,0.217,3.662,3.235,0.549,77.438,-0.089
0.007,0.96,0.215,2.563,0.488,0.488,77.495,0.009
-0.016,0.943,0.223,2.197,-2.38,2.869,77.406,-0.201
-0.017,0.967,0.219,0.977,0.549,-1.648,77.148,-0.367
0.002,0.948,0.216,8.057,0.671,-3.479,77.132,-0.341
0.019,0.959,0.23,-2.441,-1.587,-2.014,76.906,-0.166
0,0.953,0.227,5.676,-1.343,-0.488,76.876,0.077
-0.007,0.962,0.236,3.54,-2.563,-0.061,76.608,0.21
aX,aY,aZ,gX,gY,gZ,Roll,Pitch
-0.031,0.968,0.222,4.456,-0.916,1.16,76.582,-0.267
-0.023,0.967,0.223,-25.757,3.601,-3.296,76.691,-0.879
0,0.968,0.157,-6.47,-3.906,-1.709,77.73,-0.881
-0.017,0.99,0.139,-0.671,-0.488,-0.671,79.176,-1.019
-0.04,0.984,0.149,3.601,1.892,0.549,80.238,-1.154
0.007,0.967,0.155,6.47,-0.122,-1.709,81.239,-0.731
-0.003,0.953,0.175,7.568,3.235,-0.977,80.95,-0.772
-0.005,0.962,0.19,4.517,1.282,-0.366,80.167,-0.603
0.052,0.966,0.186,4.822,2.563,0.061,79.587,0.737
0.004,0.962,0.205,4.456,4.15,-0.244,78.868,0.704
-0.043,0.961,0.23,8.606,3.418,-0.732,78.116,0.108
0.02,0.956,0.231,7.568,3.479,-0.244,77.499,0.469
0.026,0.95,0.242,4.578,1.587,0.305,76.657,0.103
0.043,0.955,0.242,4.028,1.282,0.061,76.091,0.659
0.015,0.944,0.259,3.357,3.235,1.465,75.564,1.502
-0.012,0.955,0.245,4.089,2.38,1.404,75.408,1.041
0.016,0.95,0.258,5.615,4.7,1.648,75.198,0.883
0.022,0.941,0.279,6.104,7.812,0.122,74.636,0.578
0.012,0.938,0.271,4.517,4.517,2.441,74.454,0.545
0.025,0.948,0.282,4.822,3.113,1.831,73.885,1.085
0.036,0.932,0.298,4.578,3.296,-0.793,73.226,1.377
0.029,0.941,0.292,1.343,0.427,0.122,73.041,1.477
0.027,0.942,0.288,1.77,-0.854,-1.343,72.794,1.687
0.029,0.94,0.291,1.526,-1.526,-2.136,72.628,1.75
0.034,0.919,0.292,0.732,-0.916,2.319,72.649,1.729
0.04,0.971,0.278,-3.54,-2.625,3.784,72.951,1.878
0.034,0.941,0.269,1.221,2.38,-0.854,73.199,1.988
-0.004,0.943,0.277,2.38,-0.061,-0.061,73.447,1.511
0.014,0.946,0.274,5.798,0.366,-2.258,73.835,1.213
0.016,0.938,0.292,3.662,1.526,-0.427,73.529,0.878
-0.005,0.928,0.298,0.977,-2.014,0.916,73.087,0.305
0.036,0.949,0.28,0.916,-2.136,0,73.053,0.882
0.043,0.939,0.274,3.662,1.587,-0.793,73.008,1.318
0.021,0.947,0.277,0.671,0.183,0.122,73.251,1.397
0.019,0.941,0.286,3.296,0.793,0,73.45,1.747
0.022,0.934,0.291,3.479,1.892,-0.183,73.26,1.542
0.027,0.941,0.285,2.075,1.953,2.014,73.122,1.304
0.011,0.949,0.285,3.235,0.671,1.16,73.034,1.157
0.023,0.939,0.289,2.197,1.282,0.305,72.97,1.206
0.016,0.942,0.282,4.639,1.465,-0.977,73.123,1.123
0.023,0.937,0.288,4.089,1.77,-0.549,73.08,1.058
0.028,0.933,0.298,4.7,4.517,1.526,72.801,1.309
0.033,0.935,0.307,2.502,4.333,0.793,72.531,1.467
0.024,0.937,0.299,1.587,2.686,1.282,72.268,1.577
0.004,0.945,0.288,2.441,0.977,0.793,72.319,1.308
0.014,0.937,0.308,2.441,2.991,-0.549,72.212,1.091
0.024,0.932,0.308,2.563,-0.305,1.282,72.182,0.96
0.014,0.942,0.303,-2.075,-0.977,0.732,72.16,0.814
-0.004,0.927,0.297,-2.014,-2.625,0.61,71.963,0.688
0.023,0.942,0.28,-2.258,-2.869,-0.61,72.375,0.819
0,0.943,0.271,-1.465,-1.77,1.038,72.963,0.456
-0.001,0.947,0.261,5.981,0.061,1.16,73.574,0.243
0.024,0.941,0.263,-0.549,2.319,-0.793,74.098,0.654
0.013,0.943,0.269,-1.16,0.671,1.16,74.264,0.521
-0.013,0.967,0.233,4.639,-0.549,-0.305,74.89,0.334
-0.012,0.961,0.244,3.052,-2.563,-0.854,75.177,0.177
-0.032,0.949,0.25,9.827,-6.042,-1.343,75.374,-0.636
0.014,0.95,0.276,1.526,-6.226,-1.892,75.291,-0.633
-0.041,0.939,0.28,5.676,-2.38,-1.77,74.513,-1.042
0.004,0.946,0.304,17.578,1.221,-0.732,73.637,-0.818
aX,aY,aZ,gX,gY,gZ,Roll,Pitch
-0.002,0.951,0.265,8.789,-0.427,1.221,73.448,-0.383
-0.002,0.918,0.285,-10.132,2.625,-1.282,73.185,-0.613
-0.007,0.96,0.222,22.4,5.249,1.709,74.082,-0.121
-0.036,0.963,0.23,-0.916,2.319,-0.305,75.173,-0.701
-0.026,0.943,0.227,8.667,4.028,2.441,75.667,-1.051
-0.007,0.978,0.197,-1.831,0.732,-1.587,77.116,-1.114
-0.007,0.975,0.216,2.136,5.249,-0.427,77.259,-1.11
-0.042,0.941,0.236,11.597,8.911,-0.793,77.102,-1.205
0.079,0.963,0.205,4.15,4.761,-0.244,77.516,0.32
0.015,0.943,0.26,6.409,4.7,-0.305,76.502,0.646
0.032,0.946,0.254,2.808,0.366,1.465,75.824,1.23
0.015,0.941,0.265,4.333,2.38,0.244,75.312,2.061
0.02,0.946,0.275,4.395,2.991,0.244,74.361,1.202
0.021,0.937,0.283,4.272,2.563,-0.793,74.007,1.28
-0.005,0.933,0.295,7.202,1.709,0.854,73.405,0.731
0.048,0.942,0.287,1.282,-2.502,0.061,73.074,1.221
0.028,0.937,0.289,1.16,-1.587,-0.549,72.838,1.333
0.026,0.931,0.276,2.38,-4.395,-0.854,72.893,1.416
0.032,0.943,0.293,1.892,-0.488,-0.61,72.919,1.953
0.011,0.94,0.286,2.075,-0.122,-1.282,72.979,1.407
0.001,0.933,0.296,4.944,0.244,-1.404,72.892,1.021
0.018,0.932,0.285,3.174,0,-0.61,72.782,0.902
0.036,0.934,0.297,3.357,1.404,-0.793,72.679,0.973
0.013,0.935,0.299,3.418,1.465,0.977,72.471,1.008
0.018,0.938,0.299,1.892,0,1.77,72.434,1.256
0.017,0.933,0.31,9.399,5.188,-2.075,72.104,1.244
0.04,0.914,0.334,5.31,2.747,1.038,71.491,1.302
0.025,0.935,0.324,-1.282,2.136,3.296,71.142,1.472
0.021,0.929,0.32,3.235,3.052,0,70.807,1.518
0.034,0.924,0.328,3.296,0.977,-0.977,70.494,1.763
0.03,0.924,0.332,2.686,-0.061,-1.099,70.586,1.606
0.051,0.933,0.324,1.587,-0.793,-1.16,70.545,1.978
0.048,0.933,0.33,3.357,2.075,-0.305,70.39,2.356
0.038,0.933,0.319,-1.16,-0.244,1.953,70.538,2.417
0.025,0.921,0.337,2.686,1.465,0.671,70.472,2.351
0.021,0.926,0.333,2.441,1.953,0,70.35,1.917
0.04,0.93,0.328,2.502,0.61,0.732,70.369,1.805
0.007,0.931,0.331,3.662,1.709,0.916,70.238,1.351
0.047,0.923,0.332,2.625,2.502,-0.183,70.291,1.665
0.019,0.931,0.328,0.122,0.61,1.16,70.396,1.639
0.024,0.925,0.331,3.052,2.686,0.916,70.348,1.413
0.016,0.923,0.33,2.563,0.183,-0.793,70.312,1.539
0.033,0.92,0.336,3.296,0.977,-0.793,70.252,1.346
0.037,0.918,0.333,3.967,2.075,-1.16,70.098,1.609
0.048,0.923,0.335,1.038,0.977,0.061,70.006,1.954
0.057,0.923,0.331,3.601,3.784,3.174,69.921,2.559
-0.004,0.927,0.342,-0.916,0.854,2.197,69.944,2.004
0.011,0.93,0.317,-0.854,-2.258,-0.671,70.249,1.623
0.042,0.922,0.328,1.709,0.244,-0.366,70.345,1.537
0.022,0.934,0.321,4.395,0,-0.122,70.579,1.018
0.016,0.936,0.323,3.235,0.671,-0.183,70.862,1.315
0.029,0.929,0.327,2.563,1.221,0.061,70.708,1.586
0.005,0.927,0.318,1.465,0.061,0.183,70.903,1.057
0.01,0.926,0.319,2.136,-0.977,-0.549,70.899,0.893
0.029,0.926,0.314,3.784,1.526,0.061,70.96,1.086
0.039,0.927,0.311,6.653,2.441,1.221,71.164,1.229
0.008,0.939,0.317,-0.61,-1.099,1.099,71.237,1.263
0.012,0.934,0.304,-0.488,-1.038,-1.709,71.476,1.281
0.011,0.923,0.288,9.583,1.526,-1.099,71.831,1.021
0.018,0.95,0.287,1.892,-0.61,0.671,72.28,0.711
0.036,0.933,0.309,1.282,1.099,0.671,72.339,1.121
0.011,0.936,0.293,2.319,0,-0.183,72.5,1.107
0,0.929,0.296,-1.221,-1.343,-1.343,72.433,0.948
0.007,0.933,0.292,2.991,-0.916,-1.099,72.301,0.791
0.041,0.938,0.28,-0.061,-1.709,-0.977,72.731,0.863
-0.016,0.95,0.277,-0.244,-3.174,0.183,73.036,0.467
0,0.956,0.282,14.893,-0.732,-0.122,73.346,0.461
aX,aY,aZ,gX,gY,gZ,Roll,Pitch
-0.007,0.93,0.297,7.263,0.061,0.732,73.258,0.254
-0.008,0.952,0.258,-28.625,2.441,-2.441,73.615,-0.459
0.001,0.943,0.241,-1.953,0.427,0.61,74.091,-0.213
-0.016,0.949,0.243,8.728,3.784,1.587,74.603,-0.445
-0.042,0.96,0.256,18.372,9.521,0.549,75.271,-0.953
-0.043,0.944,0.287,8.118,-0.732,-2.075,74.797,-1.454
0.078,0.963,0.267,-21.362,-12.634,-2.075,74.568,-0.33
-0.008,0.961,0.27,9.216,10.071,0.793,74.24,-0.222
-0.01,0.938,0.281,7.69,3.601,1.099,73.819,0.238
0.001,0.938,0.301,5.066,5.005,0.488,73.576,0.863
0.003,0.936,0.302,6.653,4.883,-0.183,73.005,-0.213
0.019,0.92,0.315,1.709,0.732,0.183,72.2,0.177
0.01,0.934,0.302,0.671,-0.977,-0.183,71.876,0.467
0.024,0.931,0.307,3.357,-0.488,-0.732,71.74,0.805
0.021,0.927,0.315,4.272,0.549,-0.305,71.504,1.06
0.002,0.937,0.308,3.662,2.808,0.549,71.688,0.814
0.007,0.934,0.313,2.991,2.441,0.671,71.543,0.77
0.016,0.936,0.313,-0.366,2.441,2.136,71.489,0.657
0.008,0.938,0.302,3.174,2.075,0.061,71.723,0.472
0.018,0.93,0.307,3.174,2.38,0.977,71.702,0.709
0.012,0.927,0.313,3.784,3.845,0.244,71.66,0.785
0.009,0.93,0.316,3.052,1.526,0.183,71.6,0.677
0.025,0.936,0.317,3.052,0.305,-0.244,71.375,0.93
0.031,0.933,0.318,4.761,1.099,-0.854,71.223,1.111
0.031,0.928,0.321,3.479,0.366,-1.343,71.102,1.387
0.042,0.918,0.333,2.38,0.916,-0.671,70.766,1.88
0.024,1.027,0.349,3.357,0.244,-0.366,70.772,1.812
0.025,0.948,0.321,3.418,0.183,-1.77,70.809,1.717
0.02,0.933,0.327,-0.61,-0.427,1.587,70.767,1.559
0.028,0.926,0.331,1.77,0.671,0.244,70.853,1.353
0.034,0.925,0.328,2.686,0.732,0.916,70.643,1.535
0.023,0.928,0.33,1.77,0.305,1.099,70.434,1.52
0.019,0.929,0.325,0.244,0.305,0.854,70.435,1.511
0.025,0.936,0.321,1.587,1.77,2.197,70.622,1.47
0.017,0.926,0.326,1.77,3.052,1.465,70.673,1.226
0.025,0.927,0.322,1.404,2.197,1.16,70.774,1.261
0.005,0.933,0.319,3.418,2.747,0.977,70.894,1.056
0.005,0.932,0.322,2.93,1.892,0.305,70.873,0.757
0.026,0.922,0.322,0.305,0.244,-0.305,70.897,0.89
0.021,0.928,0.319,3.662,2.38,0.916,70.951,0.833
0.003,0.927,0.318,1.038,0.122,0.671,70.935,0.798
0.037,0.931,0.307,-0.366,-0.305,-0.977,71.105,1.271
-0.012,0.944,0.296,-5.798,-3.906,-0.854,71.6,0.706
-0.025,0.963,0.287,4.089,5.859,1.282,72.199,0.03
0.002,0.951,0.304,2.808,4.028,0.244,72.507,0.023
0.007,0.938,0.299,0.916,-0.183,-0.122,72.646,-0.399
0.044,0.934,0.285,-4.822,-9.277,-2.38,72.752,0.42
0.016,0.948,0.28,-2.014,-7.324,-0.671,72.771,1.013
-0.047,0.959,0.288,-1.709,0.854,0.488,73.044,0.303
0.005,0.935,0.253,4.15,2.93,-1.526,73.68,0.276
0.008,0.957,0.263,2.197,-3.906,0.061,74.077,-0.251
0.011,0.945,0.274,-1.465,-5.127,-1.16,74.145,-0.326
0.022,0.948,0.273,1.465,-0.244,-1.526,74.3,0.674
-0.016,0.93,0.261,2.625,-0.61,-0.366,74.18,0.365
-0.008,0.95,0.255,5.981,-2.808,-0.488,74.268,0.134
-0.015,0.933,0.286,4.761,1.648,-0.122,74.054,-0.243
-0.007,0.952,0.277,6.287,-2.136,2.38,74.002,-0.668
aX,aY,aZ,gX,gY,gZ,Roll,Pitch
-0.013,0.957,0.261,6.653,-0.671,1.77,74.105,-0.619
-0.019,0.951,0.271,-25.269,4.028,-2.563,73.88,-0.778
0.007,0.954,0.193,-0.916,1.587,-0.183,75.27,-0.452
0.005,0.965,0.189,1.221,-1.77,0.122,76.569,-0.283
-0.007,0.977,0.209,5.432,1.831,-0.549,77.374,-0.195
-0.024,0.955,0.226,9.644,3.479,-0.183,78.029,-0.279
0.003,0.958,0.238,8.179,7.629,-0.793,77.404,-0.349
0.015,0.956,0.252,6.958,6.409,-1.831,76.486,-0.194
0.018,0.948,0.264,7.629,4.15,-0.549,75.615,0.17
0.032,0.938,0.276,3.235,1.526,1.709,74.816,0.998
0,0.939,0.28,3.601,1.709,0.549,74.144,0.963
0.034,0.951,0.3,5.31,1.16,-0.61,73.436,1.236
0.014,0.934,0.298,7.69,2.502,-1.343,72.903,1.168
0.035,0.93,0.308,5.371,1.16,-0.488,72.426,1.197
0.029,0.934,0.317,2.93,0.427,0.549,71.869,1.61
0.041,0.926,0.323,4.333,2.869,-0.916,71.438,1.711
0.021,0.924,0.328,3.357,2.136,0.183,70.963,1.818
0.015,0.928,0.331,2.441,2.38,1.831,70.661,1.536
0.026,0.929,0.328,0.977,1.526,0.488,70.491,1.507
0.026,0.928,0.325,1.221,0.244,0.977,70.476,1.3
0.037,0.932,0.33,4.211,1.282,-1.892,70.483,1.524
0.029,0.92,0.34,5.371,1.709,-1.404,70.303,1.717
0.032,0.923,0.326,-1.465,-2.014,3.54,70.291,1.796
0.037,0.925,0.343,0.977,0.916,0.183,70.023,1.946
0.037,0.927,0.323,2.808,0.488,-0.732,70.089,1.961
0.006,0.917,0.324,1.282,0.366,2.869,70.323,1.636
0.033,0.927,0.331,1.831,0.977,-0.854,70.266,1.651
0.026,0.926,0.325,1.831,0.61,0.122,70.525,1.504
0.014,0.928,0.319,0.488,-0.427,-0.427,70.598,1.167
0.047,0.925,0.321,3.052,0.366,-2.136,70.637,1.767
0.035,0.903,0.332,1.831,0.977,0.793,70.512,1.809
0.035,0.941,0.312,3.418,0.854,1.526,70.752,1.924
0.034,0.934,0.313,1.892,0.977,-0.488,70.845,2.204
0.039,0.918,0.33,6.348,3.235,-0.549,70.691,2.088
0.012,0.922,0.345,4.395,2.197,0.427,70.633,1.744
0.029,0.906,0.351,3.723,2.258,0.61,69.941,1.664
0.03,0.919,0.346,0.244,0.122,0.977,69.416,1.606
0.029,0.928,0.341,-0.305,-0.122,0.488,69.329,1.451
0.024,0.924,0.338,2.563,0.977,-0.122,69.418,1.615
0.002,0.919,0.349,4.517,2.014,1.404,69.535,1.231
0.022,0.915,0.343,-0.793,-0.488,-0.366,69.558,1.115
0.037,0.922,0.337,1.343,0.916,-0.305,69.575,1.238
0.03,0.924,0.332,1.77,1.343,0.549,69.664,1.331
0.026,0.923,0.316,-1.404,-1.343,0.244,70.115,1.671
0.012,0.936,0.303,0.793,0.61,0.427,70.778,1.524
0.018,0.933,0.304,1.953,0.122,-0.671,71.315,1.244
0.024,0.937,0.298,2.258,1.099,0.244,71.843,1.162
0.016,0.937,0.303,0.793,0.183,-0.977,72.095,1.013
0.01,0.943,0.302,0.183,0.122,0.854,72.153,0.98
0.03,0.937,0.297,2.502,1.648,0.122,72.255,1.154
0.028,0.932,0.295,0.122,-0.183,-0.122,72.274,1.205
0.01,0.944,0.277,-5.005,-5.981,1.16,72.662,1.131
-0.006,0.948,0.281,1.16,-0.244,0.854,72.974,0.903
-0.001,0.945,0.276,2.319,0.488,0.122,73.32,0.451
0.009,0.945,0.27,0,-0.61,-0.244,73.718,0.177
0.009,0.946,0.269,2.014,0.366,0.305,73.839,0.16
0.008,0.949,0.26,-2.075,0.793,1.404,74.144,0.361
-0.003,0.951,0.24,0.183,-0.732,0.366,74.671,0.338
0.002,0.953,0.237,0.61,1.282,0.061,75.169,0.244
0.001,0.948,0.237,0.793,-1.221,-0.061,75.631,0.13
-0.015,0.961,0.227,1.343,-3.54,0.427,76.136,-0.203
-0.012,0.961,0.23,2.808,-1.77,-0.305,76.298,-0.336
-0.04,0.942,0.251,-1.709,-3.845,2.38,76.038,-0.955
-0.026,0.971,0.207,-1.648,-1.16,0.061,76.506,-1.341
-0.041,0.958,0.197,7.08,-0.916,1.343,76.877,-1.716
aX,aY,aZ,gX,gY,gZ,Roll,Pitch
-0.032,0.952,0.211,23.804,-1.465,2.38,77.081,-2.025
-0.013,0.909,0.273,20.081,18.616,6.714,76.715,-1.649
0.002,0.91,0.292,10.071,3.235,0.977,75.334,-1.26
-0.027,0.947,0.248,5.005,3.174,-0.488,74.577,-1.063
-0.032,0.949,0.24,-7.263,4.883,-1.709,74.151,-1.049
-0.007,0.932,0.257,-1.404,4.883,-1.709,74.477,-0.954
-0.008,0.948,0.254,10.803,6.775,-0.61,75.149,-1.089
0.011,0.958,0.283,7.202,5.554,1.038,74.73,-0.524
0.095,0.925,0.289,2.075,4.456,2.075,73.894,1.325
-0.003,0.955,0.282,-0.916,0.244,1.892,73.631,1.385
0.009,0.945,0.288,5.066,2.747,-1.343,73.125,1.627
-0.05,0.938,0.293,5.737,1.648,-1.16,72.963,0.754
0.02,0.945,0.302,5.127,3.723,-0.244,72.885,-0.336
0.015,0.93,0.308,4.395,2.991,0.549,72.423,-0.08
0.01,0.93,0.314,1.77,2.869,1.16,71.991,-0.073
0.015,0.926,0.311,-1.16,1.77,1.953,71.665,0.863
0.034,0.932,0.303,-1.099,-1.16,1.892,71.582,1.075
0.018,0.95,0.295,0,-4.089,-1.587,71.846,1.117
0.024,0.939,0.302,1.587,0.305,-0.732,72.037,1.332
0.019,0.927,0.295,2.991,-0.427,-1.282,72.259,1.403
0.021,0.942,0.297,1.16,-0.916,-0.366,72.396,1.206
0.011,0.943,0.295,-0.61,-1.099,1.099,72.383,1.1
0.016,0.941,0.29,1.831,1.343,0.122,72.567,0.98
0.036,0.94,0.284,2.686,0.488,1.343,72.751,1.22
-0.006,0.933,0.301,1.77,1.953,0.854,72.677,0.832
0.001,0.941,0.287,1.282,0.61,0.488,72.774,0.692
0.011,0.943,0.294,1.892,2.502,0.671,72.727,0.619
0.012,0.944,0.279,1.465,0.977,-0.061,72.834,0.272
0.011,0.937,0.289,-0.793,0.244,-0.122,73.021,0.513
0.01,0.948,0.276,1.404,0.427,-0.61,73.209,0.644
0.033,0.937,0.287,2.747,1.77,0.61,73.272,0.966
0.011,0.948,0.27,1.221,1.16,0.122,73.414,0.953
0.014,0.929,0.296,5.92,2.502,-0.549,73.283,1.008
0.022,0.936,0.283,2.014,0.549,-0.183,73.121,1.187
0.009,0.936,0.283,1.953,1.587,-0.305,73.185,0.829
0.024,0.952,0.265,1.648,0.977,-0.977,73.265,1.016
0.022,0.952,0.264,0.61,-0.061,-0.061,73.8,1.119
0.001,0.956,0.27,2.563,0.732,0,74.078,0.804
0.001,0.951,0.272,1.77,-0.61,-0.244,74.295,0.694
0,0.953,0.269,2.258,0,0.183,74.244,0.344
0.033,0.938,0.272,3.784,1.953,-0.671,74.061,0.512
0.003,0.95,0.265,-0.305,-0.61,0.122,74.109,0.541
0.01,0.943,0.272,3.662,1.77,0.305,74.074,0.668
0.017,0.946,0.276,2.747,1.77,0.122,73.934,0.916
0.019,0.938,0.277,1.465,0.793,0.977,73.88,0.712
0.004,0.948,0.269,2.563,1.282,0.427,73.81,0.731
0.042,0.926,0.279,2.136,-1.343,-0.183,73.617,1.2
0.009,0.952,0.261,0.427,-3.174,-1.648,73.862,1.083
0.028,0.946,0.261,2.075,-2.197,0.061,74.101,1.207
-0.016,0.951,0.269,1.526,-0.122,1.221,74.142,0.913
-0.011,0.948,0.257,0.427,-2.747,0.305,74.561,0.149
-0.006,0.956,0.248,0.305,-1.221,-1.282,74.76,-0.066
0.002,0.952,0.26,1.892,0.122,0,74.789,-0.443
0,0.947,0.26,2.563,1.16,0.305,74.902,-0.217
-0.002,0.956,0.256,7.507,1.77,-1.16,74.953,-0.09
0.021,0.939,0.281,7.629,5.493,1.282,74.421,0.302
-0.002,0.932,0.282,2.991,3.906,1.831,74.042,0.251
0.002,0.939,0.274,-1.221,0.61,2.869,73.804,0.278
-0.002,0.927,0.275,2.502,2.319,1.587,73.416,0.282
-0.026,0.941,0.274,1.587,1.282,0.305,73.521,-0.409
-0.015,0.954,0.27,5.432,0.244,0.854,73.77,-0.595
0.02,0.978,0.26,0.671,1.526,-0.793,74.134,-0.328
0.007,0.937,0.282,1.343,0.366,1.038,74.081,-0.194
-0.006,0.954,0.266,2.38,-1.526,1.404,74.252,0.085
-0.063,0.926,0.305,8.24,-2.869,-0.61,73.639,-0.621
-0.052,0.93,0.299,0.732,-1.221,0.61,72.827,-1.668
-0.017,0.936,0.297,19.531,0.366,2.014,72.575,-2.017
aX,aY,aZ,gX,gY,gZ,Roll,Pitch
-0.037,0.935,0.264,4.272,1.16,1.038,72.465,-2.474
-0.028,0.916,0.282,-11.902,2.075,-1.221,72.804,-1.964
-0.025,0.941,0.234,2.747,-0.061,0.488,73.808,-1.581
-0.031,0.963,0.217,3.357,2.197,-0.122,75.027,-1.793
-0.046,0.943,0.245,18.494,10.925,-1.648,75.303,-1.926
-0.035,0.927,0.271,4.211,3.662,-2.38,75.49,-2.017
0.001,0.961,0.247,3.479,-0.061,-1.404,75.423,-1.617
0.01,0.95,0.279,5.798,2.869,-0.732,74.551,-1.006
0.032,0.949,0.269,5.005,4.028,-1.282,74.273,0.14
-0.025,0.932,0.29,4.822,2.075,-0.732,74.026,0.286
0.018,0.937,0.292,5.188,1.099,-0.183,73.301,0.533
0.012,0.939,0.298,3.601,1.526,-0.488,72.991,0.563
0.025,0.932,0.302,4.456,1.648,-0.305,72.459,0.455
0.018,0.934,0.308,3.845,1.465,-0.244,72.197,1.078
0.005,0.928,0.313,3.174,2.319,0.549,71.877,0.888
0.011,0.93,0.309,2.869,-0.488,-0.366,71.683,0.872
0.022,0.932,0.311,1.343,-0.366,0.549,71.555,0.828
0.015,0.931,0.312,1.587,0.61,0.427,71.48,0.782
0.005,0.937,0.302,1.099,0.427,0.061,71.667,0.78
0.016,0.938,0.309,5.066,2.197,-1.892,71.706,0.846
0.035,0.931,0.314,3.54,0.61,-1.526,71.653,1.03
0.039,0.938,0.326,7.629,3.113,-2.197,71.483,1.371
0.017,0.921,0.326,1.282,-1.038,1.099,71.065,1.555
0.03,0.935,0.329,-0.122,-0.732,-0.671,70.762,1.762
0.029,0.923,0.32,-0.793,-1.587,1.099,70.65,1.681
0.02,0.94,0.301,-1.465,-2.93,-0.732,71.01,1.407
0.03,0.941,0.291,-2.014,-3.479,-1.831,71.577,1.581
0.001,0.941,0.287,-1.892,-2.625,-0.488,72.213,1.154
0.064,0.934,0.275,2.93,-0.183,-0.61,72.847,1.658
0.025,0.953,0.261,0.427,0.183,1.038,73.457,1.727
0.02,0.946,0.272,2.563,1.282,-0.183,73.754,1.588
0.022,0.942,0.271,2.808,0.122,-0.122,73.941,1.894
0.011,0.941,0.276,1.77,-0.061,0.854,74.024,1.122
0.023,0.947,0.262,1.831,0.244,0.549,73.992,1.108
0.005,0.952,0.26,0.427,0.244,0.793,74.195,0.885
-0.015,0.954,0.257,1.221,0.854,1.282,74.457,0.348
0.021,0.948,0.261,6.592,3.174,0.122,74.686,0.499
0.013,0.945,0.272,2.38,1.709,0.183,74.533,0.341
0.019,0.945,0.275,1.221,1.526,0.488,74.29,0.543
0.011,0.944,0.274,-0.977,4.089,0.977,73.998,0.921
0.004,0.944,0.283,5.554,4.761,1.404,73.688,0.668
-0.002,0.941,0.282,4.211,3.174,0.61,73.543,0.46
0.018,0.939,0.287,2.38,2.197,0.61,73.357,0.445
0.03,0.935,0.294,4.15,2.38,-0.122,73.031,0.724
0.008,0.94,0.288,-1.038,-2.563,-0.916,72.944,0.789
0.011,0.944,0.271,0.977,0.183,-0.61,73.107,0.974
0.031,0.943,0.261,-0.122,-0.427,-1.404,73.473,1.171
0.004,0.949,0.272,3.357,3.113,0.549,73.867,0.79
0.004,0.949,0.264,2.38,1.465,0.916,74.243,0.733
0.026,0.948,0.267,1.404,1.709,0.488,74.299,0.951
0.015,0.946,0.267,1.77,1.404,0.061,74.23,0.712
0.015,0.946,0.263,0.732,-0.671,0.732,74.335,0.88
0.014,0.954,0.245,-4.639,-4.456,0.793,74.606,1.027
-0.012,0.953,0.254,1.953,1.953,0.671,74.834,0.48
-0.024,0.955,0.241,2.869,-0.61,-0.061,75.253,-0.085
0.02,0.944,0.258,2.014,2.38,0.427,75.313,-0.014
-0.016,0.96,0.249,2.197,-0.061,2.136,75.274,-0.454
0.011,0.947,0.258,2.441,2.441,0.549,75.196,-0.121
0.011,0.95,0.255,3.174,3.54,1.16,74.962,0.384
-0.01,0.95,0.263,2.625,1.77,1.282,74.914,-0.051
0.009,0.94,0.264,2.319,2.38,-0.122,74.625,0.305
-0.011,0.939,0.249,2.441,1.16,0.122,74.726,-0.027
-0.001,0.948,0.256,2.625,1.221,-1.099,74.708,-0.191
0.015,0.938,0.261,0.671,-0.916,-0.244,74.69,0.172
0.002,0.953,0.258,1.282,-1.953,0.793,74.826,0.071
-0.021,0.948,0.275,-1.831,-0.366,-0.61,74.501,-0.062
0.009,0.957,0.248,3.357,0,-0.916,74.649,0.071
-0.017,0.942,0.265,6.592,-0.61,0.305,74.611,-0.394
-0.007,0.953,0.261,3.052,-0.305,-1.099,74.565,-0.527
-0.047,0.942,0.26,9.338,-1.953,0.183,74.733,-0.909
aX,aY,aZ,gX,gY,gZ,Roll,Pitch
-0.017,0.963,0.252,25.818,-1.221,1.587,74.669,-1.28
-0.064,0.875,0.262,-31.372,5.371,-1.099,74.38,-1.996
0.014,0.913,0.29,1.892,1.526,0.366,73.839,-1.695
-0.063,0.973,0.25,-15.991,0,-1.77,74.076,-1.927
0,0.954,0.236,2.869,-2.136,-1.77,74.293,-1.675
0.038,0.96,0.225,6.836,-0.122,-1.16,75.226,-0.157
-0.014,0.816,0.248,4.15,4.15,-0.183,75.452,-0.581
0.016,0.937,0.255,1.709,3.54,-0.549,75.241,0.601
0.016,0.938,0.26,1.587,3.479,0.305,74.83,0.843
0.021,0.942,0.254,4.15,1.587,0,74.348,0.582
0.026,0.96,0.266,1.465,0.61,-0.183,74.636,1.157
-0.011,0.95,0.263,2.014,2.136,0,74.599,0.767
0.01,0.943,0.264,1.282,0.732,0.549,74.567,0.671
0.026,0.95,0.25,-1.465,-1.404,1.099,74.653,0.738
0.011,0.943,0.266,2.625,0.61,-0.427,74.602,0.522
0.03,0.942,0.258,2.563,0.732,0.549,74.609,1.119
-0.003,0.958,0.256,1.099,2.075,0.732,74.786,0.929
0.001,0.951,0.256,1.648,1.343,0.427,74.715,0.573
0,0.947,0.255,2.38,0,-0.793,74.883,0.405
0.023,0.948,0.248,4.089,0.549,-1.099,75.051,0.313
0.048,0.95,0.249,3.235,1.404,-0.977,75.082,1.065
-0.005,0.949,0.261,2.686,1.892,-0.061,75.01,0.976
0.029,0.949,0.255,3.174,1.404,-0.061,74.985,1.397
0.016,0.951,0.262,2.441,1.831,0.427,74.804,1.29
0.009,0.945,0.263,3.418,2.075,0.61,74.633,0.72
0.011,0.946,0.259,0.244,0.427,3.296,74.641,0.948
0.044,0.946,0.272,2.625,1.892,-0.305,74.378,1.168
-0.051,0.951,0.264,0.427,-0.244,0.183,74.396,0.19
0.051,0.964,0.261,4.15,0.061,0.366,74.472,0.79
0.04,0.931,0.264,1.404,1.587,1.404,74.322,1.213
0.005,0.949,0.266,2.747,0.732,0.061,74.452,0.65
-0.002,0.947,0.267,3.052,1.16,-1.221,74.352,1.359
0.073,1,0.258,5.432,-1.709,-0.366,74.505,1.67
0.004,0.968,0.249,0.549,-0.916,-0.488,74.895,1.15
0.022,0.953,0.267,2.014,2.014,-0.244,74.866,1.386
0.017,0.95,0.274,3.54,1.16,-0.854,74.751,1.653
0.022,0.942,0.275,4.578,1.77,-0.793,74.357,0.943
0.015,0.944,0.277,0.549,0.427,0.244,73.863,1.11
0.009,0.933,0.298,3.906,2.686,-0.061,73.374,0.926
0.019,0.942,0.28,-0.793,-0.671,0,73.256,0.967
0.01,0.942,0.255,-4.15,-3.357,0.122,73.54,0.793
-0.011,0.954,0.265,-0.916,-0.183,0.244,73.766,0.401
0.023,0.947,0.257,4.089,1.77,-1.099,74.38,0.6
0.046,0.933,0.259,-0.916,-0.183,0.488,74.62,0.998
-0.002,0.956,0.256,0.854,0.366,0.366,74.666,0.815
0.01,0.952,0.247,2.38,-0.122,0,74.889,1.123
0.042,0.953,0.251,3.113,1.77,-0.549,74.974,1.395
0,0.949,0.25,0.427,0.122,1.404,75.212,0.721
-0.001,0.955,0.252,2.502,2.197,0.183,75.265,0.73
-0.002,0.95,0.252,1.343,1.526,0.244,75.194,0.558
0.031,0.951,0.246,-0.854,2.136,1.404,75.27,0.402
-0.004,0.949,0.241,1.16,4.333,1.831,75.396,0.336
-0.022,0.963,0.228,-0.427,-1.404,-1.892,75.779,0.037
0,0.955,0.227,1.038,-1.709,0.183,76.15,0.068
0.014,0.954,0.23,4.15,1.709,0.183,76.379,-0.183
-0.003,0.958,0.233,3.906,4.7,1.465,76.528,-0.169
0.005,0.956,0.229,5.066,2.869,0.916,76.484,0.226
-0.02,0.955,0.234,1.526,-0.488,0.244,76.395,-0.062
-0.015,0.96,0.244,6.714,2.075,-1.16,76.211,-0.472
0.02,0.947,0.251,3.296,2.502,-1.709,75.924,-0.131
0.019,0.945,0.25,1.648,0.305,-0.549,75.585,0.069
0.007,0.949,0.242,-1.953,-1.465,0.427,75.443,0.458
0.01,0.949,0.228,0.427,-0.488,-0.854,75.608,0.828
-0.017,0.947,0.249,-0.732,-0.549,-0.793,75.651,0.282
0.027,0.953,0.223,3.784,0.61,-1.892,76.058,0.395
0.012,0.968,0.22,-1.465,-3.662,-0.793,76.422,0.477
0.001,0.957,0.233,2.808,-1.709,-1.099,76.383,0.334
-0.004,0.945,0.238,4.944,-1.404,0.183,76.531,0.528
-0.026,0.97,0.224,5.798,-2.686,0.732,76.588,-0.236
aX,aY,aZ,gX,gY,gZ,Roll,Pitch