aX,aY,aZ,gX,gY,gZ,Roll,Pitch
0.023,0.157,0.968,22.461,-1.404,2.197,9.212,1.327
-0.002,0.203,0.967,-7.996,2.197,-1.526,10.524,0.59
0.023,0.245,0.954,4.089,1.709,0.61,11.813,0.844
0.007,0.262,0.951,0.61,2.258,7.385,12.706,0.739
-0.01,0.258,0.956,4.089,3.235,-0.732,14.173,0.259
-0.014,0.202,0.967,5.005,4.639,-1.038,14.167,0.09
-0.021,0.207,0.959,8.362,7.019,-0.671,13.618,-0.557
0.05,0.23,0.936,6.287,4.211,-0.061,13.225,0.066
0.071,0.217,0.959,4.7,1.648,1.221,12.623,1.25
0.055,0.202,0.974,3.662,0.549,-1.892,12.588,2.256
0.108,0.184,0.941,3.723,-0.977,-2.869,12.285,4.159
0.068,0.178,0.969,8.057,0.122,7.385,11.443,4.397
0.056,0.187,0.968,7.446,1.526,3.662,10.992,4.174
0.099,0.175,0.958,2.686,1.221,-2.747,10.64,4.83
0.082,0.183,0.964,1.16,-0.122,-3.906,10.578,4.433
0.098,0.173,0.96,4.517,1.892,-4.028,10.514,4.879
0.066,0.17,0.978,4.578,0.488,-1.831,10.253,5.024
0.128,0.159,0.964,0.916,0.793,-1.221,10.014,5.444
0.077,0.16,0.972,2.991,0.732,1.221,9.665,5.366
0.077,0.17,0.967,1.953,-0.061,0.549,9.618,5.052
0.089,0.168,0.97,0,-1.099,0.244,9.603,5.386
0.118,0.164,0.958,-1.77,-0.427,1.77,9.688,5.245
0.174,0.182,0.95,-2.136,1.282,2.075,10.021,6.676
0.051,0.209,0.975,-9.399,1.282,-1.648,10.568,6.276
0.074,0.262,0.943,-1.648,0.671,-3.601,11.983,6.078
0.081,0.233,0.96,2.197,0.183,-2.319,12.971,5.524
0.057,0.275,0.949,1.587,1.404,-1.953,14.32,3.806
0.02,0.231,0.965,7.263,0.427,4.089,14.672,3.364
0.071,0.237,0.959,-3.052,-1.892,-3.906,14.258,3.317
0.001,0.24,0.961,-2.075,-2.563,-8.972,14.364,2.158
0,0.253,0.959,1.587,-6.47,-3.845,14.028,1.331
-0.052,0.23,0.965,5.249,-2.502,-2.014,14.021,0.289
-0.05,0.207,0.976,33.142,-4.211,3.357,13.544,-1.458
aX,aY,aZ,gX,gY,gZ,Roll,Pitch
0.016,0.168,0.958,14.16,-0.366,0.854,12.537,-1.239
0.001,0.194,0.97,-6.287,5.981,-2.563,11.67,-1.222
0.016,0.214,0.967,1.709,3.845,3.479,11.439,-0.239
-0.056,0.159,0.968,14.221,4.883,7.202,10.78,-0.324
0.036,0.191,0.96,4.089,8.057,0.671,11.1,-0.044
0.104,0.203,0.956,1.526,6.104,0.183,11.259,1.464
-0.007,0.204,0.974,4.7,6.897,-1.038,11.091,1.133
0.057,0.206,0.965,4.395,2.441,-0.61,11.749,2.77
0.093,0.184,0.957,1.709,0.61,1.648,11.648,3.61
0.112,0.175,0.958,1.099,-1.892,4.517,11.244,3.716
0.08,0.187,0.965,0.793,-0.916,4.761,11.015,4.985
0.071,0.178,0.962,5.859,0.732,1.77,10.625,5.193
0.1,0.191,0.961,1.953,-0.122,-1.587,10.718,5.284
0.09,0.178,0.965,6.836,2.38,-0.732,10.749,4.959
0.106,0.174,0.961,2.258,1.343,-3.723,10.555,5.353
0.087,0.165,0.967,0.61,1.343,-2.075,10.355,5.581
0.143,0.184,0.941,1.16,0.793,-3.174,10.298,6.239
0.102,0.188,0.962,3.357,2.502,-0.122,10.454,6.422
0.088,0.177,0.963,-0.854,0.061,1.465,10.5,6.155
0.144,0.188,0.945,-1.831,2.502,-1.404,10.863,7.025
0.159,0.23,0.939,-4.028,0.793,1.16,11.519,7.236
0.176,0.175,0.958,8.301,3.052,9.033,11.309,8.31
0.101,0.249,0.946,-10.498,-4.028,8.789,12.381,8.502
0.056,0.147,0.963,10.803,3.479,6.714,11.786,7.207
0.088,0.226,0.955,-12.024,-3.418,-2.808,11.71,6.156
0.04,0.259,0.976,5.737,1.282,7.568,12.885,4.151
0.081,0.219,0.945,-3.784,-3.174,-1.465,12.478,3.866
-0.002,0.19,0.969,-1.038,-3.784,-3.479,13.071,3.011
0.025,0.234,1.042,3.479,-6.287,-5.066,12.904,2.054
-0.004,0.224,0.969,-0.671,-5.249,-14.282,12.447,1.43
-0.037,0.242,0.968,-0.305,-5.066,-5.676,12.691,-0.257
-0.063,0.253,0.962,10.254,-2.441,-1.77,13.583,-1.114
aX,aY,aZ,gX,gY,gZ,Roll,Pitch
-0.01,0.184,0.955,13.184,-0.977,1.221,13.185,-1.643
-0.029,0.166,0.968,-5.981,9.888,1.16,12.37,-2.019
-0.029,0.179,0.956,5.615,8.606,6.531,11.505,-1.916
-0.04,0.224,0.976,2.441,9.705,0.793,11.048,-1.586
-0.029,0.221,0.968,0.732,7.446,1.404,11.529,-1.856
-0.141,0.291,1.04,5.371,10.742,4.211,13.043,-3.382
0.061,0.239,0.951,4.883,4.883,0.549,13.905,-2.104
0.03,0.197,0.968,10.437,3.418,3.54,13.572,-1.111
0.169,0.136,0.93,8.85,5.676,4.15,12.513,1.713
0.128,0.206,0.97,-2.686,-3.723,-0.244,11.459,5.682
0.108,0.186,0.974,-1.831,-0.793,-0.916,10.622,6.345
0.097,0.204,0.969,4.517,-1.16,-2.197,10.695,7.303
0.115,0.205,0.955,-0.916,-3.784,-3.357,11.628,6.463
0.088,0.181,0.967,0.854,0.305,-1.831,11.299,5.897
0.12,0.211,0.963,4.761,1.221,-6.531,11.68,6.076
0.123,0.146,0.951,3.357,0.61,0.305,10.896,6.506
0.097,0.206,0.961,2.686,0.793,-0.916,10.895,6.231
0.15,0.251,0.967,-8.118,0.732,-4.028,11.863,7.107
0.123,0.15,0.957,-0.671,-2.075,7.385,11.011,7.194
0.17,0.189,0.942,-0.671,0.366,3.174,11.629,7.87
0.114,0.237,0.968,-2.625,-0.854,0.916,12.038,8.1
0.101,0.226,0.938,5.371,-1.892,10.254,11.798,7.452
0.061,0.216,0.957,1.648,-0.671,-0.366,12.764,6.53
0.069,0.236,0.961,0.671,-1.038,-1.77,13.399,5.026
0.034,0.232,0.954,-2.014,-3.906,-3.662,13.404,3.88
0.004,0.271,0.939,1.709,-6.104,-6.653,14.049,2.457
0.03,0.229,0.955,2.014,-0.61,2.93,14.25,1.999
-0.056,0.268,0.957,0.732,-3.357,-3.174,14.73,0.167
-0.092,0.255,0.958,9.949,-3.906,-1.526,15.034,-1.667
aX,aY,aZ,gX,gY,gZ,Roll,Pitch
-0.008,0.259,0.959,8.728,2.991,0.305,14.793,-1.829
-0.019,0.204,0.966,-13.916,5.981,-2.197,14.396,-2.532
0.018,0.242,0.951,-1.526,2.686,0.122,14.059,-1.465
-0.067,0.242,0.962,8.667,3.601,2.38,13.859,-1.095
-0.036,0.227,0.956,7.019,4.944,1.587,13.415,-1.495
0.052,0.211,0.936,1.099,12.573,11.23,13.614,-0.47
0.04,0.218,0.952,1.099,9.338,-1.038,13.28,-0.145
0.06,0.209,0.951,15.503,7.69,0.793,12.838,1.721
0.106,0.186,0.957,9.033,3.357,1.526,12.223,3.806
0.109,0.145,0.964,5.005,0.061,3.723,11.175,4.628
0.142,0.216,0.966,-11.963,-13.977,-6.836,11.07,6.086
0.103,0.203,0.961,3.296,-0.916,4.7,10.939,6.693
0.075,0.204,0.965,4.456,-0.183,4.822,11.185,6.227
0.078,0.168,0.956,5.249,4.395,-1.77,11.545,5.777
0.089,0.207,0.962,-0.732,1.16,-2.686,11.451,5.023
0.131,0.184,0.95,2.197,2.197,-5.249,11.208,5.44
0.157,0.176,0.959,3.052,-0.732,-2.747,10.791,6.647
0.071,0.212,0.95,1.282,2.014,-0.122,11.441,6.549
0.169,0.176,0.939,-11.169,-1.343,-0.305,11.034,7.769
0.125,0.25,0.955,-9.155,-2.747,6.348,11.973,7.65
0.067,0.258,0.958,4.211,0.061,7.202,13.187,6.321
0.092,0.184,0.945,6.348,1.587,4.028,12.797,6.641
0.093,0.283,0.941,0.061,1.099,6.042,14.325,5.49
0.044,0.275,0.951,7.629,6.165,2.502,14.709,4.315
0.012,0.204,0.956,3.052,-2.502,-5.798,13.972,3.534
-0.001,0.259,1.005,11.353,-7.629,-6.958,14.831,2.131
0.027,0.173,0.87,-0.122,-3.113,-7.019,13.547,1.215
0.015,0.247,0.959,2.869,0.305,-1.587,13.12,0.791
-0.011,0.219,0.959,5.493,2.197,-1.709,13.315,0.438
-0.022,0.232,0.96,0,-0.916,-4.944,13.082,0.133
0.031,0.207,0.968,16.785,-1.77,1.465,13.239,0.179
aX,aY,aZ,gX,gY,gZ,Roll,Pitch
-0.002,0.165,0.996,7.08,-0.916,2.869,11.972,-0.076
0.033,0.152,0.923,-13.977,10.01,2.014,11.134,0.573
0.008,0.186,0.963,8.301,1.526,1.404,10.454,1.009
-0.034,0.181,0.966,6.042,4.089,0.061,10.078,0.064
0.016,0.173,0.982,3.601,7.507,7.263,10.229,0.327
0.051,0.202,0.979,8.484,11.047,8.972,10.796,0.579
0.073,0.172,0.952,9.888,4.333,1.953,10.633,1.534
0.111,0.142,0.945,10.193,1.404,4.395,10.12,3.66
0.13,0.068,0.966,10.986,3.723,22.888,8.609,5.374
0.125,0.116,0.965,2.747,-0.366,0.549,7.371,6.504
0.109,0.104,0.982,7.507,1.587,2.869,6.307,6.984
0.027,0.111,0.988,2.563,-1.099,-4.517,5.807,5.7
0.13,0.111,0.961,4.761,2.563,-5.249,6.442,5.689
0.118,0.11,0.958,-1.77,0.549,-9.827,6.358,5.595
0.14,0.129,0.973,2.38,2.625,-4.7,6.734,6.063
0.145,0.116,0.962,1.709,-0.549,-1.526,6.828,7.814
0.156,0.109,0.964,1.282,0.122,1.099,6.787,8.189
0.122,0.138,0.966,-0.366,-0.793,1.465,7.177,8.22
0.164,0.147,0.968,-1.404,1.16,4.578,7.447,8.564
0.18,0.1,0.946,-1.892,2.441,1.343,7.225,9.11
0.135,0.203,0.977,-3.174,-1.404,-3.052,8.557,8.749
0.11,0.199,0.986,6.042,1.526,8.301,9.399,8.519
0.118,0.162,0.923,5.798,2.136,6.714,9.738,7.949
0.048,0.203,0.984,-1.404,-2.869,-1.77,11.158,5.948
0.086,0.156,0.938,6.775,-2.991,-1.77,10.619,5.303
0.028,0.162,0.969,0.427,-7.507,-3.479,10.145,4.131
-0.053,0.134,1.057,1.892,-8.789,-2.136,9.426,1.555
-0.001,0.143,0.965,-1.404,1.099,4.578,8.617,0.866
-0.019,0.213,0.984,-0.61,-2.258,-6.775,9.31,-0.637
-0.024,0.149,0.961,-1.404,-0.916,-5.127,9.133,-1.383
0.025,0.189,0.954,6.042,0.244,-2.197,10.172,-0.273
0.023,0.162,0.966,9.583,-0.244,-0.671,10.44,0.082
0.009,0.158,0.959,21.362,-2.502,4.639,9.711,0.488
aX,aY,aZ,gX,gY,gZ,Roll,Pitch
-0.043,0.138,0.987,25.94,-6.47,-7.385,9.495,0.205
-0.034,0.076,0.982,-11.23,4.517,-3.235,7.793,-0.655
-0.03,0.208,0.976,-4.944,2.319,2.625,8.444,-1.432
-0.097,0.139,0.985,3.479,4.822,6.531,8.117,-2.943
-0.129,0.134,0.995,6.042,12.451,10.681,8.03,-4.17
0.255,0.173,0.859,-0.122,10.62,12.573,9.735,-0.013
0.377,0.11,0.884,14.038,5.615,4.822,8.441,6.166
0.093,0.07,0.944,19.836,8.24,6.042,7.437,9.121
0.099,0.099,0.982,2.747,0.732,0,6.856,12.564
0.118,0.107,0.98,-1.465,-0.366,-0.977,5.716,10.218
0.122,0.097,0.994,1.953,-2.441,1.709,5.434,6.279
0.105,0.097,0.966,0.305,-3.723,7.812,5.788,6.421
0.06,0.096,0.975,5.798,2.075,3.662,5.759,5.881
0.058,0.135,0.978,1.526,3.479,-2.441,6.176,5.011
0.137,0.12,0.961,-0.366,0.244,-2.93,6.554,5.272
0.129,0.103,0.977,3.479,-0.305,3.113,6.622,5.601
0.07,0.139,0.977,-0.916,0.61,0.183,7.243,5.734
0.133,0.141,0.978,-0.549,3.357,-1.221,7.315,6.807
0.178,0.198,1,-27.588,-3.174,6.042,8.333,7.299
0.087,0.24,0.943,-10.925,-3.784,0.305,10.364,6.716
0.031,0.299,0.993,-5.066,-1.465,1.404,12.572,6.087
0.132,0.18,0.936,-1.587,-0.549,-2.625,13.246,6.135
0.067,0.261,0.965,10.315,-0.366,3.357,14.289,4.583
0.009,0.166,0.963,4.517,-2.38,0.488,13.197,3.47
0.06,0.192,0.929,-0.793,-7.141,-3.967,11.866,3.976
-0.132,0.217,1.042,2.625,-9.766,-13.062,12.105,0.077
-0.084,0.232,0.976,6.897,0.366,-3.54,11.651,-2.098
-0.084,0.195,0.953,6.287,-0.916,-2.441,12.071,-3.444
aX,aY,aZ,gX,gY,gZ,Roll,Pitch
-0.118,0.467,0.845,13.611,-1.282,1.77,16.137,-6.013
-0.198,0.344,0.845,-19.836,9.155,-1.465,18.719,-7.229
-0.223,0.542,0.843,-20.386,10.498,2.258,23.606,-9.294
0.101,0.536,0.772,-23.682,20.203,-3.052,29.525,-6.579
-0.138,0.707,0.86,-9.155,8.301,-5.432,32.417,-6.637
0.009,0.571,0.756,11.292,2.136,3.967,36.014,-3.601
0.023,0.569,0.813,-3.479,-0.183,0.854,36.661,-0.081
0.03,0.574,0.795,1.221,2.075,2.258,36.904,-1.084
0.019,0.574,0.802,2.197,-0.366,4.761,35.847,1.191
0.015,0.548,0.812,1.282,4.15,4.028,35.105,1.271
0.015,0.552,0.797,-2.38,-1.343,-0.305,35.032,1.17
0.031,0.562,0.805,-1.16,-2.625,-2.686,34.797,1.18
0.012,0.569,0.799,2.686,0.671,1.648,34.77,1.078
0.058,0.581,0.788,4.639,-0.977,-2.258,35.351,1.701
0.039,0.55,0.796,-4.456,-2.136,4.272,35.333,2.046
0.105,0.63,0.737,-8.728,-0.977,-2.441,36.69,3.147
0.064,0.651,0.739,-10.315,1.953,-0.488,38.134,3.904
0.032,0.625,0.683,1.892,-5.554,-2.014,39.631,3.567
-0.002,0.71,0.714,1.099,-1.953,-2.625,42.25,2.922
-0.021,0.656,0.732,11.414,6.897,6.958,42.634,1.054
-0.09,0.676,0.758,1.587,0.061,-9.033,42.716,-1.196
0.042,0.669,0.748,12.207,-3.418,-2.502,42.558,-1.024
-0.074,0.573,0.72,1.038,-5.737,0.549,40.985,-2.097
-0.092,0.543,0.764,28.625,-2.136,-1.831,39.382,-3.163
-0.109,0.523,0.817,5.066,-1.709,-0.854,37.049,-3.487
-0.068,0.547,0.801,-18.372,-5.371,-2.38,35.01,-5.17
-0.098,0.578,0.788,-5.859,-2.197,-2.319,34.482,-5.446
-0.161,0.625,0.754,7.935,-3.235,3.845,35.477,-6.401
aX,aY,aZ,gX,gY,gZ,Roll,Pitch
-0.052,0.534,0.786,11.536,3.235,4.272,35.926,-5.602
-0.149,0.484,0.778,-8.118,5.798,2.136,35.267,-6.88
-0.13,0.663,0.754,0.854,11.536,0.61,36.546,-7.308
-0.08,0.581,0.809,0.549,13.245,-1.343,35.648,-6.082
-0.036,0.648,0.822,1.648,12.634,-0.916,36.707,-5.699
-0.177,0.605,0.86,18.25,7.263,0.61,37.356,-5.887
0.042,0.559,0.811,12.573,2.747,-2.38,35.864,-3.506
0.058,0.505,0.824,3.113,0.732,5.554,34.934,-1.587
0.049,0.511,0.824,3.418,-0.854,1.709,33.307,-0.391
-0.008,0.559,0.818,-15.015,-1.343,1.831,33.057,2.078
0.049,0.56,0.805,2.502,1.77,3.174,33.109,2.176
0.021,0.532,0.816,-7.629,-0.793,1.16,33.518,1.634
0.029,0.578,0.795,1.892,-2.136,-3.174,34.574,1.341
0.033,0.582,0.79,3.052,-0.854,-1.038,35.067,1.934
0.086,0.568,0.796,3.723,0.488,1.831,35.223,2.48
0.021,0.583,0.793,1.16,1.221,0.854,36.019,2.469
0.049,0.58,0.793,0.427,0.916,3.723,36.043,2.753
0.097,0.583,0.765,-4.7,0.122,1.465,36.229,3.707
0.065,0.587,0.783,-1.709,5.92,5.981,36.579,3.403
0.023,0.635,0.751,-7.141,4.028,7.874,37.557,3.429
0.021,0.654,0.755,-2.808,-1.404,-3.357,38.777,3.015
0.015,0.61,0.734,3.052,-2.686,-3.967,39.409,1.824
0.039,0.634,0.751,3.357,0.854,-2.93,40.251,1.438
-0.023,0.631,0.726,-11.658,-12.39,-5.066,40.454,0.764
-0.011,0.59,0.765,3.723,-5.371,-2.38,39.63,0.299
-0.016,0.683,0.757,-6.165,-12.878,0.427,40.24,-0.16
-0.113,0.69,0.721,-18.86,-14.343,1.404,41.094,-2.36
-0.115,0.669,0.707,4.639,0.183,0.488,41.622,-3.673
-0.133,0.71,0.692,6.165,-1.099,-0.549,43.473,-5.397
-0.146,0.687,0.737,6.836,-5.798,-0.916,43.516,-7.27
aX,aY,aZ,gX,gY,gZ,Roll,Pitch
-0.12,0.615,0.751,10.254,1.404,0.916,42.434,-7.433
-0.132,0.619,0.752,-15.869,2.991,-2.502,41.45,-7.68
-0.156,0.679,0.721,-5.066,20.935,7.507,40.806,-8.007
-0.179,0.638,0.762,46.814,20.935,4.761,39.974,-8.497
0.006,0.556,0.805,26.428,31.189,7.568,39.017,-6.684
0.632,0.379,0.627,37.598,11.23,4.7,37.535,4.713
0.054,0.362,0.887,33.936,5.249,8.484,31.773,8.037
0.05,0.307,0.947,27.649,1.282,7.996,25.601,11.532
0.108,0.154,0.948,43.396,5.798,4.761,18.904,13.153
0.04,0.162,0.986,8.301,2.38,-12.756,14.617,3.7
0.022,0.168,0.982,-2.258,-1.282,-13.428,11.56,3.19
0.112,0.164,0.943,-17.761,-0.366,-2.136,9.51,4.12
0.079,0.203,0.957,-6.531,-0.061,-3.601,10.203,3.688
0.101,0.249,0.969,-0.977,-1.221,-7.019,11.48,4.58
0.115,0.239,0.951,0,-0.61,-2.197,12.554,5.947
0.092,0.262,0.961,-1.343,0.977,2.136,13.878,5.596
0.087,0.265,0.959,-4.822,1.77,2.014,14.734,5.682
0.172,0.302,0.943,-18.25,0.854,6.104,15.534,6.706
0.126,0.332,0.861,-28.503,-7.874,-3.113,17.184,6.963
0.092,0.375,0.918,-8.301,2.563,0.854,18.952,6.967
0.055,0.383,0.875,-10.376,-1.221,0.122,21.007,6.569
0.02,0.511,0.831,-4.456,-0.122,1.953,24.604,4.358
0.018,0.489,0.837,-2.686,1.77,9.155,26.9,2.723
-0.052,0.473,0.871,-2.991,-5.432,-8.667,28.523,0.612
-0.053,0.557,0.787,-5.615,-9.399,-7.507,31.396,-0.989
0,0.522,0.818,5.371,-4.028,2.38,31.62,-1.274
-0.105,0.532,0.816,2.747,-9.277,0.122,32.275,-3.078
-0.098,0.506,0.834,-5.371,-2.502,1.892,32.964,-3.771
-0.077,0.511,0.826,-5.371,2.197,5.615,32.057,-4.11
-0.054,0.542,0.828,20.02,5.005,5.554,32.196,-4.888
-0.13,0.477,0.869,9.827,-12.817,-0.61,31.086,-5.226
aX,aY,aZ,gX,gY,gZ,Roll,Pitch
-0.057,0.49,0.856,24.841,0.549,0,30.741,-4.621
-0.237,0.56,0.884,-22.522,20.874,3.601,30.792,-6.802
-0.006,0.377,0.891,19.409,23.621,5.676,28.362,-6.159
0.09,0.434,0.928,1.221,17.395,8.85,27.569,-2.996
0.076,0.383,0.918,-0.671,10.925,-0.549,25.843,-1.095
0.106,0.364,0.967,3.296,-4.333,-1.831,22.757,3.791
0.083,0.355,0.927,5.188,-1.221,-3.723,22.231,5.016
0.15,0.351,0.92,12.695,5.432,-2.258,21.147,5.919
0.199,0.257,0.916,11.169,3.54,-1.099,19.402,7.742
0.126,0.308,0.929,1.831,2.258,-0.061,18.816,8.136
0.098,0.275,0.937,-2.319,-0.61,-1.343,17.646,8.386
0.117,0.324,0.924,-5.066,0.488,1.892,17.272,7.917
0.163,0.33,0.902,-7.69,-1.709,9.277,18.367,7.38
0.105,0.378,0.904,-2.991,1.953,6.165,19.456,7.081
0.06,0.397,0.908,-4.089,0.671,13,21.305,6.498
0.106,0.346,0.897,3.662,2.747,8.179,21.751,6.362
0.063,0.443,0.844,-17.151,-5.066,2.441,23.674,4.909
0.004,0.467,0.847,-10.986,-10.559,-3.54,25.268,3.434
-0.053,0.507,0.817,11.658,-4.822,1.16,27.358,1.782
-0.066,0.482,0.903,0.427,-4.639,0.671,29.109,-0.774
-0.075,0.56,0.811,-3.54,-10.681,-9.277,30.784,-2.781
-0.1,0.507,0.845,-4.028,-6.348,-5.188,31.241,-4.262
-0.098,0.505,0.859,2.686,2.502,-0.549,30.878,-4.857
aX,aY,aZ,gX,gY,gZ,Roll,Pitch
-0.093,0.583,0.788,10.132,-1.465,-0.977,32.958,-5.296
-0.12,0.624,0.778,-15.503,7.263,-4.456,33.941,-5.931
-0.199,0.471,0.825,12.024,9.46,0.366,33.557,-7.42
-0.089,0.561,0.807,-1.648,8.667,-1.831,34.663,-7.32
-0.048,0.598,0.81,11.047,16.296,-1.526,34.713,-6.624
-0.001,0.578,0.832,28.992,14.587,3.54,33.857,-4.875
0.054,0.547,0.844,20.142,6.165,2.075,34.736,-1.196
0.098,0.445,0.875,12.878,2.625,3.723,32.811,1.485
0.088,0.441,0.875,7.996,0.183,0.122,30.353,3.454
0.04,0.43,0.885,6.409,2.319,-2.197,28.092,4.07
0.054,0.436,0.893,4.15,5.005,-1.831,26.34,4.081
0.124,0.376,0.884,8.606,3.601,1.343,25.371,4.482
0.127,0.38,0.893,2.197,-1.099,0.793,24.431,5.053
0.111,0.424,0.882,1.038,0.671,0.244,24.321,6.087
0.117,0.417,0.9,0.977,2.258,6.165,23.972,7.007
0.132,0.418,0.872,-5.493,-0.427,13.367,24.589,7.109
0.037,0.426,0.884,2.197,4.761,5.127,25.314,5.792
0.025,0.445,0.875,-3.967,-1.526,-4.15,25.686,4.547
0.012,0.424,0.864,0.977,-8.301,-10.193,26.064,3.034
-0.039,0.424,0.882,-3.662,-7.874,-0.427,26.117,0.514
-0.081,0.472,0.861,-6.897,-6.836,-5.859,26.867,-1.215
-0.058,0.495,0.859,1.709,-3.174,-3.357,27.61,-2.43
-0.076,0.419,0.851,31.067,-9.155,-1.16,27.593,-3.719
aX,aY,aZ,gX,gY,gZ,Roll,Pitch
-0.062,0.498,0.922,5.188,1.038,-1.038,28.26,-3.986
-0.094,0.451,0.875,2.014,8.118,-1.404,27.892,-4.175
-0.163,0.522,0.881,19.714,8.179,4.15,28.011,-5.64
-0.083,0.447,0.885,10.01,13.306,3.479,28.132,-5.692
0.057,0.388,0.861,13.794,25.085,13.123,27.213,-4.119
0.145,0.422,0.865,6.104,12.146,7.874,26.984,-0.659
0.062,0.41,0.891,9.033,6.042,5.005,25.415,2.671
0.08,0.368,0.896,-2.441,-1.648,2.502,24.205,5.101
0.072,0.387,0.894,1.831,-1.77,-7.812,23.999,5.274
0.098,0.377,0.904,-0.671,-0.061,-6.531,23.201,4.567
0.091,0.376,0.905,2.441,0.793,-4.883,22.645,4.987
0.067,0.365,0.904,2.747,0.305,-3.418,22.573,4.796
0.095,0.37,0.906,2.441,-1.587,1.953,22.258,5.129
0.083,0.362,0.904,-1.587,-0.916,2.014,22.061,4.918
0.068,0.395,0.898,1.221,0.061,0.244,22.371,4.576
0.158,0.417,0.866,-1.465,0.854,-6.226,23.228,5.926
0.149,0.41,0.903,4.639,6.592,9.827,23.749,6.689
0.045,0.401,0.898,-1.831,-1.099,-2.258,24.323,6.118
0.042,0.41,0.896,-2.991,-0.061,3.296,24.55,5.738
0.011,0.457,0.883,-10.498,-3.052,1.526,25.057,3.569
0.006,0.446,0.862,-4.883,-0.488,9.827,25.822,1.517
0.012,0.532,0.853,-29.846,-12.451,-2.686,27.823,1.036
-0.065,0.587,0.793,-0.61,-5.737,-0.916,30.799,-0.512
-0.081,0.574,0.792,2.502,-0.122,-0.366,32.924,-1.859
-0.108,0.538,0.829,2.441,-1.343,-0.61,34.246,-3.496
-0.01,0.604,0.776,6.409,-0.793,2.136,35.723,-3.838
-0.033,0.597,0.793,11.169,-2.93,1.404,35.868,-3.372
aX,aY,aZ,gX,gY,gZ,Roll,Pitch