aX,aY,aZ,gX,gY,gZ,Roll,Pitch
0.904,-0.140,-0.473,23.682,4.272,-0.122,-7.811,61.370
0.905,-0.134,-0.399,-8.057,7.019,2.136,-7.759,63.202
0.910,-0.099,-0.498,-11.780,1.343,3.540,-6.970,62.444
0.885,-0.122,-0.491,0.977,10.193,4.150,-6.952,61.893
0.863,-0.103,-0.549,3.906,19.836,2.991,-6.443,60.823
0.825,-0.139,-0.668,0.244,43.518,4.333,-6.406,57.095
0.737,-0.084,-0.793,-0.916,74.768,5.066,-6.169,52.484
0.575,-0.057,-0.902,13.916,91.370,3.357,-5.231,45.601
0.372,0.003,-1.024,31.860,111.938,4.639,-3.757,36.435
0.018,0.052,-1.024,24.170,139.832,7.812,-1.197,24.451
-0.314,0.119,-0.846,48.767,137.512,16.174,1.748,9.726
-0.621,0.023,-0.541,-19.409,123.596,19.836,3.250,-8.994
-0.764,0.059,-0.251,-50.049,91.064,-2.563,4.610,-32.147
-0.920,-0.023,-0.171,-17.090,27.344,2.625,3.211,-55.240
-0.948,0.063,-0.124,-0.244,4.150,6.287,2.051,-71.409
-0.950,0.037,-0.196,-4.700,-0.122,-1.404,2.136,-78.098
-0.976,0.054,-0.228,-0.122,0.366,2.686,1.946,-79.091
-0.956,0.020,-0.200,4.517,-2.502,4.211,2.561,-78.656
-0.964,0.012,-0.230,1.770,-0.244,-0.854,1.785,-77.356
-0.940,0.020,-0.192,-2.747,0.854,-0.366,1.537,-77.417
-0.973,0.014,-0.231,4.211,-2.747,1.282,0.953,-77.426
-0.950,0.048,-0.190,4.700,-2.991,2.197,1.365,-77.500
-0.895,0.072,-0.122,0.671,-19.714,3.052,2.291,-78.702
-0.847,-0.057,-0.322,14.526,-68.909,8.301,1.163,-76.672
-0.728,0.003,-0.542,23.376,-90.027,3.479,1.043,-70.996
-0.452,-0.052,-0.626,-31.799,-118.652,8.667,-0.593,-61.109
-0.078,-0.184,-0.830,-36.926,-149.719,17.578,-5.282,-41.991
0.284,-0.028,-1.100,1.221,-140.930,13.733,-4.577,-17.389
0.519,-0.052,-0.909,-22.400,-95.520,5.127,-5.171,4.486
0.672,-0.157,-0.775,10.559,-71.716,3.662,-6.177,21.007
0.762,-0.156,-0.626,-2.686,-42.480,7.812,-5.492,33.104
0.852,-0.157,-0.587,0.916,-33.142,3.235,-7.376,43.624
0.898,-0.145,-0.503,-7.202,-33.997,5.188,-8.649,51.135
0.907,-0.120,-0.491,2.014,-11.963,-0.183,-8.081,56.281
0.924,-0.126,-0.400,1.953,3.479,0.122,-7.624,60.136
0.921,-0.137,-0.392,4.333,-0.671,-0.916,-7.390,62.951
0.945,-0.142,-0.405,2.258,2.014,0.671,-7.350,64.427

0.887,-0.091,-0.467,20.813,2.563,3.113,-7.009,64.706
0.888,-0.123,-0.470,-13.977,2.380,0.671,-6.966,63.646
0.890,-0.062,-0.472,5.737,1.404,-0.671,-5.906,62.715
0.887,-0.079,-0.500,7.080,6.531,3.174,-5.037,61.339
0.863,-0.120,-0.558,-2.563,23.926,4.822,-5.415,60.001
0.812,-0.116,-0.707,-3.845,45.349,3.174,-5.245,56.686
0.737,-0.125,-0.817,-4.761,80.139,1.099,-6.008,51.554
0.563,-0.031,-0.921,15.564,111.328,-0.122,-5.304,44.490
0.310,-0.122,-0.959,5.249,111.450,0.488,-5.387,35.264
-0.013,-0.052,-1.012,14.160,100.830,2.991,-4.671,23.228
-0.290,0.104,-0.842,5.432,90.759,2.991,-1.527,8.681
-0.495,-0.001,-0.745,7.263,79.590,1.526,-1.131,-7.801
-0.674,0.097,-0.651,4.883,66.589,1.160,2.380,-24.336
-0.771,0.018,-0.547,-12.634,59.509,3.784,3.509,-38.593
-0.868,0.053,-0.466,-10.315,62.561,2.747,2.594,-49.287
-0.900,0.008,-0.127,-5.066,41.687,-3.052,2.750,-60.732
-0.931,0.073,-0.118,-21.790,-2.747,-2.319,2.358,-69.931
-0.987,0.029,-0.228,14.648,-2.686,1.465,2.448,-75.499
-0.945,0.122,-0.178,-10.376,-1.038,2.869,3.480,-79.600
-0.958,-0.053,-0.244,-1.038,-1.770,0.977,2.506,-78.368
-0.966,0.066,-0.217,-2.991,0.916,1.831,2.376,-77.124
-0.951,-0.001,-0.224,1.770,0.427,1.587,1.955,-77.132
-0.945,0.057,-0.207,-3.845,-0.732,0.244,1.000,-76.825
-0.957,-0.050,-0.248,-0.610,-3.357,1.404,1.048,-76.762
-0.913,0.005,-0.173,8.118,-14.343,9.583,0.159,-77.249
-0.851,-0.017,-0.265,-12.207,-70.618,9.583,-0.072,-76.313
-0.770,-0.090,-0.594,-37.048,-72.693,12.695,-2.335,-69.731
-0.575,-0.124,-0.688,-9.216,-92.346,13.184,-3.632,-60.837
-0.324,-0.233,-0.955,-1.465,-109.009,19.104,-7.431,-44.714
-0.037,-0.179,-0.990,-0.793,-114.075,23.071,-9.725,-27.420
0.266,-0.184,-0.992,5.920,-106.873,18.005,-11.051,-10.264
0.548,-0.225,-0.914,-26.550,-88.562,20.935,-11.946,6.569
0.742,-0.350,-0.805,-9.338,-77.637,19.165,-13.187,21.693
0.844,-0.277,-0.623,5.127,-63.416,21.057,-14.145,34.500
0.870,-0.221,-0.553,3.662,-39.429,7.019,-14.413,44.206
0.922,-0.209,-0.454,17.517,-26.367,5.005,-14.234,51.838
0.947,-0.135,-0.366,-0.916,-1.770,-0.122,-11.600,58.843
0.959,-0.166,-0.333,2.808,2.136,-1.770,-10.177,63.357
0.935,-0.155,-0.336,3.784,-1.770,-0.610,-9.335,66.571
0.944,-0.131,-0.324,3.540,0.183,-0.793,-8.315,68.631
0.937,-0.171,-0.338,7.141,1.160,0.061,-8.853,68.730
0.934,-0.171,-0.343,10.376,-2.258,0.061,-8.965,68.449

0.957,-0.099,-0.371,6.897,-8.606,1.404,-8.111,68.444
0.948,-0.107,-0.387,-7.935,-2.258,-0.854,-7.729,67.818
0.945,-0.058,-0.371,19.104,11.108,-0.854,-6.125,67.920
0.898,-0.107,-0.466,2.319,13.123,2.502,-5.207,66.403
0.880,-0.161,-0.570,-2.747,37.903,0.977,-6.053,63.311
0.830,-0.151,-0.664,1.709,59.814,-2.380,-6.614,59.113
0.729,-0.112,-0.754,-9.033,75.867,-1.831,-7.304,53.033
0.546,-0.185,-0.910,0.183,88.684,-4.456,-8.334,45.216
0.318,-0.135,-1.013,3.967,102.295,-6.592,-8.045,35.528
0.062,-0.074,-0.965,5.188,104.004,-10.986,-7.218,24.216
-0.218,-0.157,-1.002,20.142,104.187,-10.193,-7.936,10.207
-0.491,0.015,-0.801,4.211,103.577,-9.583,-5.280,-4.947
-0.681,-0.000,-0.612,-4.700,103.394,-10.071,-3.409,-21.408
-0.758,-0.113,-0.130,-13.611,91.003,-7.935,-4.370,-40.020
-0.928,0.135,-0.083,-1.892,5.920,-2.258,0.649,-60.355
-0.993,-0.005,-0.294,10.864,-3.113,1.404,0.276,-71.581
-0.956,0.132,-0.257,-8.972,-3.296,3.418,2.301,-77.903
-0.969,-0.028,-0.226,1.099,2.014,1.526,3.400,-76.952
-0.945,0.068,-0.197,0.793,-0.671,0.183,2.413,-75.648
-0.961,-0.006,-0.250,-2.563,-0.793,1.343,2.415,-76.147
-0.947,0.062,-0.227,5.249,-1.526,-0.549,1.410,-76.686
-0.939,0.017,-0.247,-4.761,-0.671,-0.183,2.079,-76.197
-0.968,-0.032,-0.256,0.488,-0.366,0.916,0.602,-75.588
-0.921,0.088,-0.199,5.554,-5.798,2.747,2.003,-76.031
-0.840,-0.119,-0.139,-8.301,-49.805,10.132,-0.697,-77.052
-0.741,0.014,-0.422,-40.649,-106.079,28.442,-0.772,-73.647
-0.460,-0.282,-0.790,-1.831,-131.897,36.438,-5.106,-61.936
-0.091,-0.135,-0.875,-27.405,-142.639,45.105,-9.599,-43.000
0.240,-0.314,-1.005,-29.785,-116.699,32.837,-12.357,-18.347
0.409,-0.390,-0.949,11.658,-80.444,22.949,-17.184,1.480
0.630,-0.327,-0.793,13.123,-78.125,27.039,-16.993,17.340
0.774,-0.203,-0.655,2.991,-60.181,19.409,-17.244,29.563
0.850,-0.296,-0.533,9.644,-37.476,10.803,-17.073,40.007
0.907,-0.198,-0.465,11.108,-32.471,6.897,-14.378,49.994
0.924,-0.187,-0.399,0.732,-14.221,3.540,-12.411,57.103
0.942,-0.206,-0.374,3.906,0.671,-0.366,-12.405,61.334
0.947,-0.163,-0.342,4.944,-2.869,-0.793,-10.571,64.797

0.951,-0.123,-0.381,10.498,-6.714,2.136,-9.524,66.416
0.927,-0.132,-0.381,3.906,0.854,0.488,-8.779,66.924
0.919,-0.126,-0.411,8.484,2.930,1.892,-7.689,66.724
0.919,-0.152,-0.500,2.075,25.085,0.000,-7.470,64.694
0.849,-0.081,-0.626,-17.883,63.782,-0.244,-6.852,61.282
0.767,-0.214,-0.796,8.057,99.609,-7.263,-7.826,55.182
0.591,-0.232,-0.908,1.587,113.220,-14.160,-9.143,47.048
0.267,-0.222,-1.057,27.771,119.019,-15.137,-10.119,35.508
-0.078,-0.123,-0.956,12.512,123.840,-21.545,-11.113,22.152
-0.346,-0.139,-0.847,8.301,122.009,-21.729,-10.695,6.448
-0.632,-0.030,-0.576,3.479,95.825,-17.639,-8.304,-12.800
-0.783,0.008,-0.397,-7.446,64.575,-6.287,-4.877,-33.398
-0.864,-0.113,-0.215,-32.288,68.237,-4.150,-4.716,-51.967
-0.929,-0.201,-0.223,-5.188,1.343,9.399,-5.471,-65.665
-0.946,0.023,-0.197,-7.935,-1.892,-2.563,-4.406,-73.087
-0.996,-0.128,-0.258,8.667,-1.526,-0.244,-6.228,-75.196
-0.944,0.034,-0.201,5.981,0.488,1.160,-3.984,-76.434
-0.953,-0.097,-0.246,3.906,-0.671,1.587,-2.456,-76.554
-0.951,-0.007,-0.189,-0.183,-1.892,1.404,-2.885,-76.603
-0.947,-0.066,-0.221,0.183,-3.235,0.122,-2.007,-77.112
-0.979,-0.010,-0.221,0.488,0.000,3.235,-2.626,-76.839
-0.928,-0.037,-0.232,0.000,-1.343,0.793,-1.753,-77.109
-0.940,-0.003,-0.190,-2.625,-4.639,1.343,-1.698,-77.064
-0.859,-0.159,-0.144,9.766,-50.354,20.996,-3.148,-77.623
-0.682,-0.072,-0.473,-22.888,-109.680,37.170,-4.337,-72.522
-0.422,-0.313,-0.662,-41.077,-126.282,47.424,-9.537,-61.631
-0.018,-0.495,-0.998,-20.508,-135.986,56.702,-18.991,-38.359
0.209,-0.565,-1.069,7.507,-109.619,44.861,-23.448,-14.576
0.414,-0.482,-0.966,19.470,-79.102,25.757,-26.629,2.520
0.647,-0.381,-0.751,-3.540,-69.275,25.391,-25.754,16.435
0.754,-0.289,-0.699,4.883,-50.781,16.968,-23.079,27.521
0.820,-0.285,-0.630,6.287,-34.058,12.573,-19.640,38.044
0.835,-0.251,-0.549,5.066,-15.137,10.742,-16.645,46.585
0.903,-0.179,-0.431,9.033,-17.822,2.441,-13.959,52.763
0.912,-0.220,-0.480,11.841,-14.893,3.906,-12.983,56.596
0.905,-0.200,-0.424,6.104,-1.282,-2.197,-11.917,59.839
0.913,-0.180,-0.410,7.080,-5.432,0.244,-10.928,62.269

0.893,-0.160,-0.429,12.878,0.000,-0.977,-10.698,62.308
0.892,-0.196,-0.449,13.367,2.502,0.671,-10.451,62.638
0.894,-0.180,-0.454,7.935,1.343,0.854,-10.171,62.315
0.913,-0.198,-0.461,3.601,2.136,2.563,-10.363,61.646
0.872,-0.131,-0.470,-2.930,6.714,2.563,-9.954,61.178
0.872,-0.214,-0.578,7.080,19.531,1.404,-10.102,59.503
0.813,-0.115,-0.697,-3.967,64.392,-4.639,-9.088,56.447
0.713,-0.205,-0.855,11.841,97.046,-6.226,-9.042,50.631
0.477,-0.203,-0.922,9.460,99.426,-7.507,-9.965,42.490
0.229,-0.083,-0.996,11.292,99.365,-8.972,-8.352,32.369
-0.051,-0.185,-1.021,10.071,112.549,-10.315,-9.511,19.550
-0.375,-0.174,-0.939,18.860,119.080,-12.451,-9.417,4.070
-0.601,-0.007,-0.594,-8.118,117.737,-11.658,-7.042,-12.569
-0.814,-0.085,-0.511,4.272,90.210,-15.198,-7.186,-30.718
-0.868,-0.047,0.074,-12.329,53.955,-4.822,-5.403,-53.112
-0.987,0.115,-0.125,-5.859,-1.709,0.549,-0.393,-70.520
-0.948,0.042,-0.212,-6.042,-2.686,5.676,0.391,-77.909
-0.968,-0.023,-0.243,8.545,0.122,3.418,1.312,-82.239
-0.941,0.058,-0.194,-1.831,1.282,3.174,2.807,-78.272
-0.958,-0.036,-0.219,4.761,-1.282,2.808,0.593,-77.158
-0.947,0.035,-0.203,2.319,-0.977,0.977,0.494,-77.292
-0.956,-0.012,-0.200,-1.770,0.610,1.892,0.653,-77.864
-0.959,-0.010,-0.192,3.967,-1.221,1.526,-0.349,-77.959
-0.938,0.054,-0.190,2.319,-5.188,1.770,0.987,-78.287
-0.848,0.008,-0.088,10.498,-38.330,15.320,0.602,-79.724
-0.815,-0.031,-0.360,-5.127,-83.008,20.691,0.329,-76.879
-0.501,-0.120,-0.546,-4.150,-133.606,34.424,-1.537,-69.066
-0.177,-0.076,-0.823,-62.988,-154.663,43.396,-4.232,-51.978
0.222,-0.286,-1.043,-35.950,-119.812,31.555,-9.554,-24.258
0.401,-0.294,-0.900,-12.878,-86.182,20.081,-13.185,-0.913
0.597,-0.411,-0.891,16.418,-75.867,17.883,-15.664,15.322
0.736,-0.276,-0.729,6.348,-61.707,17.212,-17.309,27.354
0.813,-0.203,-0.620,2.319,-40.527,10.376,-16.315,37.200
0.866,-0.180,-0.469,0.000,-35.583,7.141,-14.797,45.959
0.929,-0.204,-0.419,11.292,-36.560,5.127,-12.116,54.361
0.944,-0.140,-0.425,-3.174,-5.493,1.282,-10.205,59.828
0.950,-0.196,-0.307,-1.831,2.258,-1.587,-10.145,64.327
0.945,-0.190,-0.383,1.953,-4.456,1.648,-10.183,65.733

0.963,-0.148,-0.371,16.052,-2.441,-1.160,-9.386,66.771
0.922,-0.155,-0.374,4.333,1.404,0.549,-9.679,67.162
0.943,-0.116,-0.360,11.475,3.357,-1.831,-8.549,66.918
0.967,-0.194,-0.445,17.944,12.390,-0.427,-8.517,66.280
0.905,-0.173,-0.529,-6.042,25.574,4.333,-8.835,63.982
0.852,-0.117,-0.634,7.385,59.021,-0.305,-8.211,60.695
0.766,-0.150,-0.769,-6.348,83.252,-2.258,-8.545,54.821
0.596,-0.214,-0.947,23.926,104.126,-5.737,-8.758,46.568
0.327,-0.059,-1.052,26.245,119.812,-8.240,-7.238,36.415
-0.046,-0.076,-1.000,7.629,135.681,-6.531,-6.910,23.380
-0.318,-0.099,-0.808,1.282,128.357,-8.911,-6.621,8.306
-0.660,-0.029,-0.646,8.606,107.849,-13.245,-4.193,-11.195
-0.804,0.129,-0.370,-5.615,85.510,0.244,-1.266,-32.893
-0.891,-0.176,-0.033,3.723,70.801,-3.357,-3.057,-55.092
-0.944,0.110,-0.106,-4.395,-4.272,1.404,0.568,-70.690
-0.961,-0.052,-0.205,-3.906,-6.836,3.052,0.183,-78.774
-0.984,0.081,-0.191,6.958,2.136,2.991,-0.548,-81.918
-0.967,-0.019,-0.165,-2.869,0.000,5.188,1.758,-80.019
-0.954,-0.041,-0.237,2.869,-2.747,1.526,-0.454,-78.323
-0.969,0.062,-0.179,-2.197,0.916,2.808,1.197,-78.666
-0.983,-0.069,-0.196,5.493,-0.916,0.488,-0.979,-78.606
-0.950,0.068,-0.168,-2.808,-0.977,0.488,0.290,-78.554
-0.957,-0.050,-0.178,2.075,-9.094,3.662,0.169,-79.403
-0.886,0.088,-0.078,2.197,-44.983,13.306,0.570,-80.647
-0.813,-0.215,-0.500,1.953,-85.693,24.292,-1.664,-75.521
-0.591,-0.221,-0.638,5.005,-101.440,33.630,-6.425,-65.929
-0.304,-0.297,-0.876,4.700,-124.512,39.551,-10.950,-49.822
0.033,-0.452,-1.080,3.296,-124.939,35.645,-18.606,-26.803
0.284,-0.322,-0.996,6.592,-105.042,22.888,-19.539,-8.604
0.544,-0.332,-0.877,-9.277,-82.031,18.066,-19.902,7.780
0.703,-0.346,-0.774,-6.165,-76.355,19.043,-19.737,21.353
0.814,-0.215,-0.653,8.484,-56.824,14.404,-16.684,33.694
0.869,-0.257,-0.535,17.822,-34.729,9.155,-15.723,43.728
0.924,-0.162,-0.416,-5.493,-26.062,4.089,-13.507,52.151
0.942,-0.169,-0.376,-15.137,-12.512,3.418,-11.172,58.954
0.935,-0.200,-0.386,7.263,0.366,-0.061,-11.011,62.808
0.932,-0.189,-0.326,4.822,-2.747,-1.221,-10.156,65.927

0.926,-0.194,-0.406,15.747,-2.808,0.793,-10.597,65.877
0.923,-0.161,-0.386,3.357,-2.380,1.587,-10.513,65.696
0.930,-0.134,-0.368,1.648,3.906,0.977,-9.630,66.235
0.953,-0.129,-0.432,26.611,15.747,4.028,-8.663,65.401
0.883,-0.196,-0.654,15.808,54.138,-1.709,-8.555,62.231
0.814,-0.211,-0.765,-6.897,93.018,-1.465,-9.040,57.074
0.634,-0.156,-0.877,19.348,112.488,-7.996,-9.199,49.407
0.377,-0.209,-1.085,18.066,129.639,-10.315,-10.090,37.998
-0.021,-0.187,-1.053,30.457,147.888,-11.353,-10.320,25.082
-0.379,0.023,-0.752,-2.258,136.169,-9.888,-7.895,9.138
-0.625,-0.043,-0.529,-0.854,109.375,-14.282,-6.823,-10.652
-0.880,-0.092,-0.446,1.709,80.261,-3.296,-5.082,-34.268
-0.896,0.128,-0.092,-23.621,37.964,-11.230,0.261,-56.801
-0.961,0.008,-0.185,-18.005,0.183,0.732,0.014,-69.572
-0.964,-0.003,-0.189,8.789,1.892,-0.793,0.609,-76.142
-0.973,-0.014,-0.219,-6.287,0.977,4.517,1.766,-79.610
-0.912,0.017,-0.172,10.376,3.052,1.526,0.126,-78.630
-0.978,-0.036,-0.206,-1.465,1.404,3.906,-0.519,-78.371
-1.006,-0.042,-0.197,0.732,-2.014,2.991,-1.073,-78.345
-0.956,-0.001,-0.184,-1.587,0.671,0.916,-0.891,-78.816
-0.967,-0.044,-0.195,1.709,-1.648,2.136,-1.762,-78.558
-0.945,0.056,-0.155,2.747,-2.808,3.967,-0.445,-79.308
-0.917,-0.059,-0.149,2.136,-32.471,14.771,-0.715,-79.749
-0.795,-0.018,-0.213,-37.781,-78.796,22.888,-1.011,-78.840
-0.674,-0.284,-0.589,-3.235,-102.112,37.903,-4.970,-70.986
-0.391,-0.193,-0.734,-22.034,-125.488,51.758,-9.691,-57.426
-0.040,-0.355,-0.946,-12.573,-114.624,44.922,-15.226,-35.911
0.227,-0.278,-0.875,-8.911,-97.412,38.574,-18.795,-14.768
0.476,-0.546,-0.922,2.502,-85.510,27.893,-21.484,4.146
0.656,-0.395,-0.804,23.010,-75.867,22.888,-22.589,18.767
0.791,-0.239,-0.600,13.977,-62.500,15.320,-20.717,31.432
0.851,-0.236,-0.521,1.160,-41.565,11.963,-19.605,41.106
0.941,-0.275,-0.455,-1.953,-43.030,10.925,-15.895,50.805
0.927,-0.162,-0.444,2.380,-8.362,3.784,-12.684,57.727
0.951,-0.230,-0.318,5.859,2.563,0.854,-12.532,61.905
0.943,-0.225,-0.354,6.714,-2.747,-0.244,-12.334,64.344
0.934,-0.184,-0.333,14.160,-0.183,-1.465,-11.256,66.204
0.927,-0.186,-0.342,5.615,-1.221,-0.061,-11.694,67.173

0.910,-0.158,-0.390,16.479,-4.333,1.709,-10.732,66.602
0.910,-0.190,-0.399,6.836,2.747,1.770,-10.280,66.100
0.930,-0.160,-0.410,-1.221,8.057,1.648,-9.881,65.301
0.974,-0.128,-0.380,8.301,2.380,0.977,-8.936,65.428
0.900,-0.208,-0.524,-3.052,18.372,2.136,-9.520,63.570
0.863,-0.168,-0.557,-15.564,43.274,-0.183,-9.171,61.558
0.794,-0.181,-0.698,7.019,64.392,-3.479,-9.404,57.313
0.651,-0.199,-0.911,14.099,92.957,-5.859,-10.249,48.939
0.449,-0.153,-1.003,-2.014,119.385,-9.155,-9.494,40.342
0.122,-0.228,-1.087,12.024,141.296,-10.315,-10.254,28.094
-0.626,-0.162,-0.614,20.508,102.173,-11.108,-11.468,9.176
-0.866,-0.246,-0.220,-20.569,63.171,0.610,-14.451,-16.908
-1.000,-0.152,-0.196,-23.499,-1.953,-2.380,-13.932,-46.356
-0.954,0.033,-0.165,6.592,-4.150,1.404,-8.222,-69.236
-0.974,-0.065,-0.207,-4.089,-1.526,5.249,-6.334,-76.683
-0.982,0.007,-0.187,5.371,-0.671,0.549,-2.549,-78.777
-0.967,-0.001,-0.173,-3.296,-1.160,1.709,-0.390,-79.291
-0.953,-0.026,-0.177,7.263,1.465,1.221,-1.256,-79.045
-0.960,0.061,-0.170,-5.249,-0.183,0.549,0.583,-79.588
-0.954,-0.048,-0.199,-0.244,0.854,1.282,-0.222,-79.357
-0.966,0.061,-0.148,3.723,-3.479,1.526,0.695,-79.701
-0.911,-0.101,-0.120,-14.526,-43.762,15.259,-0.408,-80.453
-0.759,0.134,-0.305,3.113,-83.252,11.597,0.705,-77.851
-0.591,-0.189,-0.613,-18.433,-122.498,31.738,-1.594,-69.778
-0.221,-0.350,-0.957,-29.602,-123.108,41.870,-9.039,-50.341
0.009,-0.413,-1.111,15.015,-121.033,34.485,-13.655,-26.776
0.346,-0.261,-0.920,-21.423,-104.675,24.109,-18.480,-6.851
0.578,-0.393,-0.959,0.183,-91.187,18.372,-19.458,9.642
0.722,-0.209,-0.711,14.465,-78.491,15.381,-17.470,22.915
0.886,-0.227,-0.562,7.629,-68.054,14.832,-15.084,37.201
0.926,-0.161,-0.453,7.507,-61.462,8.240,-13.539,47.394
0.909,-0.072,-0.454,-0.549,-13.184,3.113,-9.310,56.473
0.971,-0.175,-0.292,-14.832,10.193,-0.427,-8.814,63.111
0.960,-0.160,-0.317,9.399,1.343,-0.916,-7.962,66.738
0.949,-0.134,-0.325,2.197,-2.319,-0.610,-7.631,68.543
0.964,-0.169,-0.306,4.211,1.465,0.671,-8.969,70.075
0.934,-0.150,-0.346,6.836,-3.174,0.854,-8.659,69.400

0.949,-0.121,-0.370,10.742,-6.897,0.732,-8.099,68.917
0.927,-0.148,-0.355,7.019,4.333,0.183,-8.318,68.369
0.924,-0.147,-0.425,15.015,10.498,0.549,-8.005,66.815
0.912,-0.224,-0.543,-10.071,30.640,4.517,-8.921,64.006
0.846,-0.138,-0.631,-15.686,65.430,-0.305,-9.094,60.261
0.769,-0.183,-0.780,-7.812,93.872,-4.944,-9.377,54.320
0.556,-0.238,-1.013,18.860,118.713,-10.864,-10.378,45.127
0.258,-0.070,-1.058,18.555,140.381,-9.766,-8.425,34.469
-0.125,-0.109,-0.903,-10.681,141.479,-11.108,-8.474,20.989
-0.491,-0.167,-0.716,14.771,123.535,-8.362,-8.986,3.035
-0.702,0.133,-0.489,-20.264,83.801,-6.592,-3.655,-18.459
-0.854,-0.124,-0.346,8.789,70.374,-8.240,-4.674,-41.337
-0.920,0.076,-0.266,-51.575,66.467,-2.075,-1.365,-58.490
-0.963,0.052,-0.053,-33.508,7.385,-3.357,2.163,-71.337
-0.996,-0.044,-0.050,8.911,3.174,-3.479,-0.604,-79.144
-0.986,-0.048,-0.142,-3.235,0.916,7.935,0.526,-82.442
-0.949,0.013,-0.039,-2.258,3.784,1.648,-0.400,-85.792
-0.967,-0.085,-0.094,0.610,-2.747,4.578,-2.404,-84.650
-0.973,0.044,-0.115,2.380,-7.629,4.822,-1.119,-84.131
-0.816,0.077,0.152,-12.695,-44.800,22.339,0.762,-88.327
-0.901,-0.028,-0.205,-19.592,-70.740,32.898,0.132,-85.905
-0.708,-0.240,-0.531,-5.737,-84.778,42.725,-2.418,-78.137
-0.529,-0.514,-0.811,3.967,-91.980,32.349,-12.163,-62.131
-0.291,-0.419,-0.870,24.841,-94.116,33.630,-19.302,-42.001
-0.047,-0.506,-0.985,21.484,-96.924,28.564,-25.218,-23.568
0.205,-0.272,-0.886,-8.484,-87.341,25.024,-25.342,-9.541
0.496,-0.322,-0.834,-8.606,-78.552,23.499,-22.923,5.335
0.658,-0.370,-0.828,2.625,-69.458,20.813,-21.310,18.933
0.750,-0.325,-0.696,14.160,-51.880,15.869,-18.429,31.144
0.826,-0.185,-0.572,4.395,-40.527,11.902,-16.703,40.768
0.901,-0.247,-0.460,1.099,-39.673,12.939,-15.564,48.298
0.873,0.042,-0.344,-5.676,-28.992,4.761,-10.290,56.800
0.902,-0.092,-0.358,-11.719,-2.319,0.610,-7.025,62.796
0.919,-0.145,-0.303,7.812,0.549,1.038,-6.486,66.937
0.920,-0.154,-0.333,-0.854,0.977,0.000,-5.167,69.064
0.943,-0.164,-0.337,-1.953,-0.793,0.061,-8.054,68.616
0.932,-0.184,-0.325,-1.160,0.122,0.122,-9.331,68.663
0.952,-0.188,-0.330,2.625,-3.967,0.183,-9.842,68.265
0.949,-0.188,-0.309,3.967,0.977,-0.305,-10.262,68.479

0.876,-0.163,-0.362,-0.488,-4.700,3.113,-10.384,67.844
0.931,-0.142,-0.322,0.916,-1.709,2.197,-9.801,68.132
0.939,-0.163,-0.343,2.625,7.324,1.770,-9.473,68.047
0.951,-0.158,-0.376,15.320,1.404,0.183,-8.997,67.427
0.923,-0.163,-0.399,-10.620,10.254,2.747,-8.877,67.250
0.905,-0.138,-0.447,5.676,17.639,-2.258,-8.772,65.635
0.877,-0.229,-0.623,1.770,42.969,-1.404,-9.545,61.703
0.780,-0.128,-0.761,-4.333,88.318,-5.188,-9.050,56.302
0.649,-0.201,-0.901,-1.465,112.183,-11.230,-9.383,48.725
0.334,-0.236,-1.044,4.150,128.357,-11.108,-10.599,37.660
0.024,-0.109,-1.008,5.798,138.794,-25.391,-9.293,25.342
-0.328,-0.112,-0.805,7.446,132.935,-14.893,-9.784,10.091
-0.648,-0.137,-0.549,12.817,109.314,-12.085,-9.753,-10.140
-0.774,-0.021,-0.330,-10.803,93.140,-6.958,-6.769,-32.433
-0.796,0.052,0.346,-42.603,60.181,-20.264,-4.359,-61.989
-1.005,-0.066,-0.120,5.676,6.531,-3.662,-3.015,-78.183
-0.976,-0.020,-0.116,-18.311,-2.319,-0.854,-0.892,-86.352
-0.961,-0.113,-0.060,8.972,2.014,-2.075,-2.264,-87.608
-0.967,0.043,-0.063,-5.676,-0.793,1.953,-2.283,-84.282
-0.968,-0.086,-0.110,0.305,-1.038,5.310,-2.596,-84.233
-0.999,-0.035,-0.117,1.038,-0.061,-0.122,-2.804,-84.157
-0.991,-0.079,-0.110,3.845,-0.549,0.427,-2.284,-83.752
-0.966,0.021,-0.102,3.479,-2.625,0.671,-2.602,-83.121
-0.990,-0.145,-0.133,5.493,-5.615,11.292,-3.426,-82.510
-0.942,-0.009,-0.002,5.920,-14.343,10.437,-3.113,-84.039
-0.829,-0.045,-0.146,-2.869,-77.698,20.081,-2.729,-83.536
-0.736,-0.209,-0.443,13.062,-107.422,35.034,-6.519,-76.625
-0.406,-0.130,-0.678,27.954,-146.301,45.105,-7.064,-65.465
0.013,-0.032,-0.895,-38.269,-153.259,42.236,-8.126,-41.619
0.347,-0.333,-1.018,-13.367,-116.882,25.024,-12.664,-14.083
0.635,-0.260,-0.870,0.549,-86.548,18.799,-12.135,9.453
0.740,-0.293,-0.787,28.748,-71.533,6.897,-13.016,25.213
0.855,-0.196,-0.585,-7.446,-53.223,13.123,-14.582,36.888
0.922,-0.324,-0.498,14.404,-50.293,10.010,-14.395,46.977
0.883,-0.113,-0.499,5.066,-21.973,4.272,-12.587,53.214
0.930,-0.179,-0.329,-1.038,1.892,1.831,-11.291,59.967
0.978,-0.157,-0.310,1.526,-2.991,-0.793,-10.786,64.033
0.941,-0.166,-0.353,3.967,0.854,0.671,-8.703,66.638
0.954,-0.163,-0.329,4.456,0.061,0.793,-9.387,68.753
0.940,-0.157,-0.326,-0.061,-0.549,0.549,-9.053,68.965
0.993,-0.160,-0.311,2.258,1.221,-0.122,-9.069,69.001
0.946,-0.150,-0.330,2.014,-2.869,2.319,-8.850,69.391
0.960,-0.151,-0.320,5.554,0.061,-0.305,-8.669,69.595

