aX,aY,aZ,gX,gY,gZ,Roll,Pitch
0.871,0.013,-0.533,-13.489,1.099,2.625,0.712,58.52
0.843,0.063,-0.592,-12.878,34.18,6.226,2.117,56.655
0.809,0.099,-0.844,8.179,54.382,6.653,3.13,51.92
0.796,0.095,-0.903,-6.348,75.623,9.705,3.523,49.003
0.762,0.126,-0.868,-3.174,100.281,9.399,4.831,44.82
0.695,0.114,-0.974,-0.061,119.385,11.597,5.265,40.266
0.535,0.171,-1.004,-9.338,129.15,11.414,6.192,36.39
0.384,0.098,-1.051,15.381,127.136,13.733,6.371,31.16
0.211,0.165,-1.026,7.874,122.559,15.869,7.039,24.051
-0.043,0.131,-0.996,6.958,110.107,16.418,7.632,14.803
-0.22,0.153,-0.952,5.005,99.121,14.893,7.709,4.679
-0.361,0.113,-0.866,-4.15,90.576,15.564,8.279,-6.077
-0.551,0.086,-0.898,-3.54,84.778,15.869,7.064,-17.432
-0.64,0.076,-0.806,-13.367,85.388,15.869,6.191,-26.536
-0.735,0.051,-0.68,-1.404,90.454,17.029,4.686,-35.001
-0.818,0.06,-0.548,-5.31,98.267,18.982,3.882,-42.979
-0.867,-0.007,-0.443,-12.146,97.9,17.883,2.612,-50.937
-0.89,-0.035,-0.25,3.357,91.98,20.996,1.032,-59.859
-0.896,-0.04,0.03,-0.61,77.515,16.968,-0.337,-70.761
-0.927,-0.088,0.184,-14.343,39.429,6.042,-2.687,-81.909
-0.956,-0.036,0.075,0.122,-0.244,-3.052,-3.096,-86.846
-1.003,-0.097,-0.022,1.587,-11.353,-1.099,-3.93,-84.366
-1.035,-0.098,-0.009,2.197,-4.089,2.686,-4.632,-84.302
-1.021,-0.075,-0.008,3.296,0.061,1.709,-4.354,-85.616
-0.998,-0.087,-0.012,-3.906,-1.282,0.977,-5.022,-84.927
-1.012,-0.103,-0.03,3.906,-3.418,-0.671,-5.098,-84.835
-1.006,-0.077,-0.047,-3.479,-3.906,0.732,-4.843,-84.969
-0.991,-0.126,-0.028,1.343,-7.568,1.465,-5.591,-84.166
-0.991,-0.118,-0.029,6.592,-15.076,-0.244,-6.048,-83.655
-0.994,-0.094,-0.074,4.883,-15.259,-1.343,-5.943,-83.528
-0.982,-0.073,-0.053,6.104,-24.658,0.183,-5.928,-83.501
-0.925,-0.135,-0.076,-0.244,-47.974,-7.385,-6.154,-82.964
-0.857,-0.083,-0.151,14.771,-77.026,-10.864,-5.827,-82.074
-0.794,-0.05,-0.318,7.996,-102.478,-17.944,-5.41,-79.048
-0.661,-0.003,-0.534,5.798,-122.498,-18.188,-4.545,-71.026
-0.499,-0.016,-0.777,23.56,-138.855,-17.273,-2.624,-57.555
-0.302,0.078,-0.97,10.925,-146.606,-17.029,0.15,-40.962
-0.122,0.062,-1.169,14.282,-147.278,-14.832,1.832,-24.655
0.167,0.08,-1.213,20.874,-143.799,-17.944,2.792,-10.375
0.359,0.08,-1.226,15.747,-137.085,-18.372,3.757,1.267
0.509,0.034,-1.205,3.174,-126.343,-19.287,2.998,10.719
0.641,0.041,-1.144,50.781,-91.736,-31.799,2.659,19.272
0.57,0.182,-0.911,-5.493,-72.754,1.282,3.903,24.805
0.737,0.131,-0.824,8.972,-63.354,-10.681,4.662,30.917
0.703,0.138,-0.755,-46.021,-48.523,4.089,6.248,35.865
0.771,0.114,-0.711,-30.09,-34.119,7.812,7.592,40.543
0.836,0.058,-0.594,4.211,-35.095,-2.747,6.009,46.233
0.815,-0.064,-0.545,3.906,-30.579,-7.202,3.467,50.055
0.87,0.014,-0.59,-26.855,-29.724,-4.822,1.71,53.416
0.898,0.003,-0.597,-5.798,-1.16,-3.235,0.161,55.773
0.931,-0.03,-0.473,31.372,1.038,-5.005,-1.055,57.889
0.853,0.023,-0.417,3.113,6.47,2.625,0.141,59.686
0.909,0.052,-0.41,13.367,2.441,-0.977,0.677,62.149
0.914,0.036,-0.421,6.042,0.488,1.16,1.155,64.474
0.892,0.052,-0.429,-1.953,-2.93,0.427,2.357,64.721
0.907,0.05,-0.425,-5.676,-4.7,1.282,2.721,64.911
0.896,0.036,-0.458,4.333,-2.991,1.465,2.483,64.227
0.912,0.061,-0.449,3.418,-2.686,1.953,2.833,63.813
,,,,,,,
,,,,,,,
0.784,0.32,-0.606,-0.671,0.488,-7.08,6.649,60.315
0.83,0.285,-0.588,-18.311,11.475,1.526,9.903,57.078
0.766,0.216,-0.587,-31.738,7.141,8.728,12.502,53.931
0.794,0.466,-0.705,-78.43,44.678,44.556,17.706,48.592
0.688,0.347,-0.847,-13.489,51.453,54.138,17.723,45.476
0.612,0.227,-0.938,-34.912,70.984,49.194,16.641,40.709
0.539,0.251,-1.004,-34.424,96.497,38.635,16.43,35.25
0.373,0.262,-0.936,-14.587,93.994,32.532,14.075,29.686
0.24,0.184,-0.952,-0.61,85.571,31.311,12.361,24.12
0.094,0.352,-0.934,2.136,84.29,23.926,14.619,17.435
-0.042,0.289,-0.955,1.77,85.388,21.973,15.843,9.594
-0.16,0.218,-0.937,3.174,80.811,21.912,15.433,1.921
-0.257,0.219,-0.859,7.446,73.12,17.334,16.236,-5.435
-0.375,0.27,-0.87,-6.714,65.552,11.963,15.003,-12.512
-0.482,0.225,-0.916,-5.92,60.486,11.963,13.774,-18.982
-0.592,0.19,-0.893,-0.854,64.697,16.357,12.97,-25.04
-0.66,0.198,-0.73,-5.066,76.05,20.996,12.425,-30.914
-0.728,0.166,-0.716,-8.545,79.102,24.292,10.818,-36.351
-0.841,0.145,-0.6,-3.967,85.999,30.457,9.738,-43.042
-0.894,0.103,-0.418,11.414,89.111,36.438,8.739,-50.881
-0.885,-0.063,-0.226,1.526,77.942,31.677,5.165,-59.249
-0.9,-0.037,-0.052,1.465,55.908,17.883,2.255,-69.646
-0.966,-0.042,-0.013,0.183,34.18,8.789,-0.603,-78.96
-0.969,-0.1,-0.003,-10.62,16.907,4.517,-3.704,-84.152
-0.994,-0.059,-0.008,2.258,-0.793,-1.282,-3.551,-86.268
-1.033,-0.046,-0.059,-0.488,-5.188,-2.319,-3.562,-86.238
-1.014,-0.042,-0.081,-0.977,-2.747,-0.977,-3.518,-85.872
-1.003,-0.092,-0.086,-1.648,-3.479,-0.793,-3.381,-85.264
-0.986,-0.062,-0.056,3.235,-11.108,-2.38,-3.43,-84.739
-0.957,-0.035,-0.014,1.953,-24.414,-4.822,-3.338,-85.223
-0.979,-0.057,-0.112,2.869,-45.471,-5.981,-3.581,-84.703
-0.941,-0.054,-0.203,9.033,-62.317,-8.484,-3.064,-83.54
-0.823,0.038,-0.245,13,-85.022,-17.212,-1.642,-81.031
-0.677,0.045,-0.46,25.94,-117.554,-22.766,-0.441,-73.393
-0.568,0.115,-0.666,18.921,-134.705,-25.024,2.436,-62.305
-0.383,0.18,-0.898,24.414,-147.217,-21.851,6.469,-46.829
-0.173,0.245,-0.935,1.709,-151.611,-20.996,9.598,-30.855
0.046,0.227,-1.01,-15.32,-141.418,-13.245,11.814,-16.707
0.215,0.255,-1.031,-25.513,-122.192,-8.972,13.146,-4.241
0.37,0.147,-1.111,-2.014,-103.516,-12.817,11.994,6.255
0.426,0.13,-1.105,1.038,-82.825,-9.888,9.804,13.741
0.514,0.097,-1.012,1.648,-76.965,-5.31,7.902,19.5
0.681,0.007,-0.898,3.052,-76.172,-12.817,4.748,25.66
0.739,0.06,-0.78,26.367,-74.158,-18.127,3.759,31.8
0.801,0.172,-0.654,0.549,-56.58,-14.709,4.448,39.134
0.97,0.038,-0.584,-7.69,-47.668,-14.648,3.669,47.451
0.863,0.079,-0.535,2.991,-29.114,-6.165,4.723,52.619
0.829,0.12,-0.521,10.742,-21.301,-4.822,5.634,56.047
0.987,-0.005,-0.43,-17.395,-8.057,16.846,3.171,60.269
0.811,0.046,-0.527,-4.089,-4.822,10.132,3.408,59.838
0.882,0.061,-0.439,2.869,1.465,3.357,3.172,61.19
0.904,0.028,-0.406,5.859,1.343,2.319,1.848,63.247
0.917,0.063,-0.409,5.432,-5.554,-2.93,2.87,62.974
0.868,0.091,-0.453,5.737,-4.395,-5.188,3.505,64.219
0.896,0.1,-0.435,8.911,0.916,-1.953,4.052,64.28
0.919,0.061,-0.427,2.136,-0.977,2.075,4.508,64.035
0.91,0.088,-0.399,6.836,-0.244,0.61,4.875,64.066
0.943,0.077,-0.407,5.066,0.366,-2.197,4.617,65.136
,,,,,,,
,,,,,,,
0.805,0.076,-0.684,0.671,28.748,4.395,4.247,61.502
0.813,0.132,-0.723,-2.93,47.913,5.493,5.166,57.105
0.747,0.123,-0.844,3.113,67.566,8.057,5.491,50.876
0.693,0.109,-0.934,3.235,92.651,10.864,5.698,43.552
0.592,0.132,-0.987,1.16,107.3,12.512,6.297,38.923
0.49,0.128,-1.024,-19.958,119.324,12.268,6.173,33.425
0.294,0.134,-1.078,-3.662,130.432,7.141,6.338,27.032
0.086,0.113,-1.066,7.812,134.888,8.301,6.557,19.256
-0.134,0.121,-1.018,15.869,125.977,11.841,6.653,9.904
-0.29,0.152,-0.869,2.319,114.441,11.23,7.344,-0.611
-0.451,0.106,-0.75,-0.305,103.149,13.306,7.407,-11.912
-0.657,0.137,-0.698,-9.155,89.966,13.306,8.011,-24.398
-0.711,0.049,-0.54,-25.391,89.6,9.338,7.122,-36.096
-0.857,0.005,-0.503,-23.56,89.111,8.85,4.639,-46.845
-0.909,-0.021,-0.369,-36.133,94.666,1.404,2.568,-55.966
-0.949,-0.011,-0.246,-28.748,91.37,-1.221,0.323,-64.173
-0.94,0.019,-0.033,-14.771,80.933,-4.517,-0.128,-72.512
-0.942,-0.034,0.128,11.902,57.8,0,-0.709,-82.045
-0.952,-0.041,0.168,1.465,34.973,0.61,-1.004,-88.966
-0.958,-0.02,0.167,0.488,19.653,0.183,-1.133,-83.433
-0.922,-0.003,0.163,-2.625,4.15,-5.798,-1.453,-80.464
-1.002,0.016,0.126,-4.578,-8.057,-4.517,-0.702,-80.725
-1.045,0.028,0.084,-0.061,-4.761,5.371,0.298,-82.162
-1.006,-0.016,0.086,-3.906,-4.211,5.859,0.357,-83.397
-0.98,-0.065,0.097,6.592,-9.216,3.235,-0.521,-84.412
-1.004,0.004,0.094,1.648,-9.766,4.761,-0.691,-84.842
-1.006,-0.049,0.061,10.071,-7.935,7.568,-1.792,-84.846
-0.972,-0.037,0.099,7.202,-15.076,0.671,-2.112,-84.518
-0.938,-0.014,0.126,18.616,-46.265,-1.892,-1.401,-84.279
-0.931,-0.044,0.002,16.052,-91.797,-2.38,-2.135,-85.209
-0.82,-0.013,-0.131,18.127,-99.304,-4.456,-1.692,-87.731
-0.735,-0.03,-0.36,25.94,-128.662,-15.137,-1.682,-83.726
-0.587,0.072,-0.531,8.179,-146.851,-19.165,-0.257,-71.64
-0.423,0.074,-0.788,8.606,-153.87,-13.55,1.891,-54.747
-0.26,0.05,-1.026,-4.883,-148.071,-10.62,2.844,-36.49
-0.022,0.065,-1.145,10.925,-150.635,-11.353,4.021,-20.259
0.234,-0.009,-1.249,7.69,-144.592,-18.555,2.436,-6.383
0.34,0.064,-1.293,-12.512,-115.356,-9.644,2.058,3.546
0.454,0.123,-1.166,14.954,-98.328,-11.414,2.798,11.697
0.604,0.105,-0.961,23.376,-92.224,-6.714,3.273,19.234
0.689,0.165,-0.822,14.465,-91.919,-10.681,5.52,26.075
0.756,0.13,-0.748,0.549,-56.824,-2.014,6.687,33.845
0.769,0.102,-0.742,-4.639,-51.697,-2.258,6.639,40.402
0.835,0.158,-0.58,4.761,-35.217,1.16,7.533,45.998
0.853,0.115,-0.543,-17.883,-26.672,6.531,6.967,50.364
0.842,0.067,-0.507,-10.803,-22.461,2.747,6.215,53.818
0.835,0.126,-0.426,-3.235,-14.404,0.793,6.74,57.936
0.9,0.062,-0.454,-10.315,-7.446,3.418,5.366,60.198
0.923,-0.052,-0.528,2.38,-2.014,3.723,2.909,61.183
0.893,0.071,-0.455,1.953,1.343,-1.526,2.957,62.181
0.907,0.074,-0.416,1.709,3.845,-2.014,2.189,62.841
0.918,0.065,-0.416,-13.306,-1.587,2.075,2.225,63.425
0.893,0.038,-0.433,1.709,2.258,-0.488,3.543,64.307
0.921,0.076,-0.407,2.747,-0.488,-0.916,3.61,65.082
0.913,0.067,-0.445,1.465,-2.808,1.038,3.494,64.769
,,,,,,,
,,,,,,,
0.774,0.219,-0.821,0.366,62.195,1.953,5.598,58.534
0.72,0.145,-0.88,-12.512,84.778,4.15,6.902,51.99
0.674,0.101,-0.966,-1.099,107.178,5.615,6.925,44.319
0.56,0.103,-1.03,-4.578,119.812,3.662,7.048,36.111
0.4,0.046,-1.072,-2.441,125.488,-0.061,4.91,30.679
0.185,0.015,-1.185,-3.479,123.84,2.075,3.274,23.114
-0.023,0.047,-1.081,11.902,120.85,1.465,2.684,14.387
-0.213,0.083,-0.978,-9.46,120.85,2.686,2.537,4.616
-0.418,0.068,-0.913,-12.146,118.408,-1.221,2.918,-6.428
-0.557,0.073,-0.744,-15.503,117.004,-1.587,3.98,-18.009
-0.668,0.007,-0.583,-34.607,115.906,-5.005,3.568,-29.915
-0.778,-0.071,-0.492,-17.944,107.544,-4.333,1.207,-41.536
-0.846,-0.001,-0.341,-19.531,98.633,-6.226,0.131,-52.818
-0.964,-0.012,-0.23,3.235,84.778,2.136,-1.214,-63.147
-0.981,-0.071,-0.089,13.367,77.698,3.54,-2.373,-71.954
-0.972,-0.071,0.083,-8.606,68.176,-4.211,-2.336,-80.979
-0.963,-0.089,0.146,-8.545,49.927,-14.954,-3.578,-86.185
-0.941,0.009,0.156,-14.648,28.931,-19.958,-3.276,-84.53
-0.92,0.124,0.263,-23.926,17.822,-17.578,-0.394,-80.308
-0.95,0.109,0.244,4.089,10.559,-2.625,2.286,-77.701
-0.934,0.123,0.253,-1.221,-1.404,8.972,5.423,-75.255
-0.962,0.046,0.217,8.24,-12.573,10.986,5.908,-74.328
-0.959,0.053,0.208,6.897,-16.663,10.071,4.836,-75.561
-0.96,0.013,0.16,10.986,-30.457,10.62,3.437,-77.14
-0.973,0.014,0.16,9.583,-40.405,12.146,1.824,-78.893
-0.971,0.015,0.092,6.836,-50.598,8.423,1.375,-80.768
-0.923,-0.063,-0.02,23.193,-70.435,1.648,-0.324,-84.129
-0.87,0.009,-0.093,17.334,-95.642,-2.991,-0.395,-87.827
-0.811,0.01,-0.278,15.259,-120.605,-2.441,-0.476,-85.188
-0.708,0.014,-0.418,13.306,-130.981,-3.357,-0.517,-76.258
-0.588,-0.005,-0.695,8.545,-135.193,-2.38,0.469,-63.497
-0.394,-0.004,-0.951,14.893,-134.277,-2.075,0.237,-46.878
-0.17,0.035,-1.097,26.855,-144.165,-5.554,0.61,-30.463
0.046,0.094,-1.235,8.423,-147.522,-5.92,1.655,-15.521
0.24,0.145,-1.071,-6.165,-133.667,-5.554,3.532,-3.64
0.428,0.06,-1.02,0.122,-117.249,-13,4.281,6.999
0.54,0.067,-1.054,14.648,-115.845,-11.658,4.588,15.927
0.696,0.1,-0.961,10.62,-108.643,-7.935,4.693,24.787
0.774,0.086,-0.849,23.01,-88.074,-7.019,3.903,32.036
0.838,0.116,-0.73,-4.089,-52.185,-0.793,4.6,38.24
0.838,0.041,-0.669,5.676,-30.273,2.991,4.373,44.257
0.861,0.21,-0.591,-12.085,-20.142,3.723,5.941,49.029
0.894,0.122,-0.485,-5.432,-16.541,7.141,6.604,53.659
0.85,0.147,-0.401,7.507,-15.076,6.287,7.314,57.32
0.776,0.049,-0.446,10.437,-17.578,-5.432,7.73,59.462
0.844,0.115,-0.45,-54.81,-15.259,7.568,6.481,61.391
0.792,0.131,-0.488,-40.955,-17.212,-4.211,6.76,60.582
0.892,0.085,-0.468,9.46,6.165,0.732,5.706,60.209
0.899,0.089,-0.353,8.484,7.69,1.282,6.203,62.177
0.926,0.067,-0.342,-1.892,-2.869,-0.977,5.47,64.249
0.889,0.119,-0.37,-10.437,-11.719,-7.019,5.25,66.405
0.882,0.112,-0.438,2.258,-3.601,-2.808,5.676,66.657
0.939,0.064,-0.39,2.136,-0.732,0,5.252,66.475
0.92,0.065,-0.4,10.681,1.099,1.831,5.192,65.702
0.912,0.11,-0.366,4.761,1.831,-0.977,5.035,65.921
,,,,,,,
,,,,,,,
0.892,0.101,-0.461,0.488,-1.465,-0.183,4.862,65.715
0.874,0.052,-0.498,-1.526,-0.427,-2.136,4.7,63.992
0.86,0.116,-0.575,2.747,13.55,-7.69,5.403,61.299
0.834,0.079,-0.674,-7.507,33.936,-5.371,4.852,57.135
0.818,0.082,-0.79,3.052,55.664,-2.136,4.452,52.92
0.766,0.141,-0.806,2.625,77.576,2.625,5.507,48.732
0.734,0.111,-0.89,2.563,97.107,5.615,5.286,44.684
0.603,0.052,-1.026,3.906,112.061,4.639,4.828,39.587
0.479,0.093,-1.071,-0.977,123.535,3.235,4.943,34.109
0.322,0.087,-1.082,-5.127,134.155,0.916,4.26,27.65
0.104,0.048,-1.038,-2.014,137.329,-1.465,3.574,19.648
-0.111,0.049,-1.11,20.142,131.653,1.16,3.628,10.454
-0.301,0.104,-0.976,0.793,128.235,2.075,3.918,0.204
-0.495,0.068,-0.819,-1.892,117.004,2.319,3.832,-11.469
-0.644,0.104,-0.641,-21.851,106.995,1.465,4.809,-23.532
-0.724,0.028,-0.604,-23.926,103.21,3.54,4.665,-35.314
-0.851,0.016,-0.468,0.122,95.703,3.479,3.337,-46.894
-0.925,0.057,-0.343,-1.831,87.769,15.564,3.134,-56.69
-0.929,0.068,-0.089,-8.24,84.717,3.418,2.591,-66.182
-0.947,-0.047,-0.029,8.972,79.346,2.563,1.442,-75.653
-0.961,-0.021,0.124,2.441,64.209,-0.183,0.88,-84.799
-0.936,0.086,0.278,-9.705,44.861,-5.188,1.318,-85.491
-0.95,-0.049,0.25,-14.343,27.161,-11.292,-0.453,-80.666
-0.919,0.038,0.226,-8.179,13,-13.977,0.81,-76.846
-0.95,0.15,0.261,2.38,0.488,-3.052,3.319,-74.516
-0.97,0.065,0.249,9.399,-4.944,8.057,2.991,-75.117
-0.965,0.06,0.25,-6.409,-4.211,6.348,4.561,-74.772
-0.984,0.047,0.21,4.883,-4.822,4.272,4.617,-75.198
-0.985,0.064,0.203,0.732,-3.662,3.662,3.364,-76.429
-0.958,0.046,0.212,1.648,-9.277,3.906,3.101,-76.95
-0.939,0.036,0.258,5.249,-24.353,4.395,2.786,-76.833
-0.927,0.061,0.202,16.113,-44.067,9.155,3.027,-76.708
-0.945,-0.061,0.056,26.306,-68.359,8.911,1.221,-78.99
-0.878,0,-0.006,21.606,-89.294,-2.686,0.55,-82.111
-0.837,0.021,-0.18,19.958,-110.107,-14.587,0.328,-88.802
-0.76,0.064,-0.34,14.893,-128.174,-18.982,0.387,-82.161
-0.65,0.071,-0.545,6.226,-135.376,-16.296,2.695,-70.893
-0.514,0.086,-0.774,6.897,-132.019,-13.916,4.176,-56.098
-0.332,0.168,-0.941,9.46,-142.578,-14.954,6.444,-40.625
-0.127,0.158,-1.024,-1.404,-143.311,-16.296,7.512,-26.055
0.124,0.14,-1.049,1.282,-139.343,-13.855,8.087,-12.493
0.375,0.191,-1.094,5.554,-134.888,-21.423,9.077,0.556
0.539,0.168,-1.088,5.859,-121.582,-16.479,8.575,11.952
0.587,0.163,-1.006,6.348,-98.877,-11.536,8.286,20.761
0.703,0.237,-0.914,40.466,-83.74,-12.329,9.245,27.855
0.719,0.3,-0.775,-7.141,-67.322,-6.653,10.754,33.297
0.72,0.125,-0.745,2.808,-45.105,-7.629,10.623,37.658
0.819,0.111,-0.592,-13.306,-41.443,6.226,10.339,43.474
0.846,0.154,-0.482,-13.977,-41.626,4.333,9.672,49.157
0.873,0.06,-0.455,5.737,-35.583,1.648,6.464,54.571
0.817,0.087,-0.527,16.296,-24.841,-2.625,5.976,58.009
0.961,-0.123,-0.621,13.367,-4.089,4.639,2.491,59.124
0.954,0.085,-0.433,2.808,5.371,5.432,1.498,60.523
0.958,0.16,-0.374,-0.061,-3.601,-1.343,2.851,61.965
0.919,0.134,-0.358,-16.296,2.808,11.841,3.491,64.567
0.873,0.12,-0.35,4.517,6.287,8.972,7.116,66.708
0.859,0.163,-0.335,-4.028,1.831,-3.296,8.473,67.028
0.959,0.072,-0.376,2.563,2.014,4.272,7.187,67.422
0.897,0.153,-0.384,-5.92,-2.441,-0.61,7.475,66.882
0.885,0.135,-0.365,-8.301,-1.221,-2.502,7.658,66.691
,,,,,,,
,,,,,,,
0.767,0.096,-0.9,-3.906,78.125,8.545,6.412,59.378
0.71,0.094,-1,0.305,98.267,7.69,6.487,50.446
0.617,0.122,-1.039,-7.507,119.568,8.057,5.74,41.776
0.456,0.108,-1.139,3.723,132.324,6.897,4.987,31.888
0.272,0.121,-1.168,7.69,138.916,7.629,5.29,25.205
0.057,0.145,-1.116,4.211,142.334,9.705,6.051,17.347
-0.203,0.165,-0.996,18.738,135.742,12.024,6.884,7.455
-0.379,0.155,-0.852,21.545,120.911,14.343,8.043,-3.461
-0.526,0.132,-0.776,2.869,105.835,19.104,8.728,-15.504
-0.638,0.141,-0.648,-6.897,92.224,19.287,9.089,-27.696
-0.739,0.07,-0.55,-7.324,82.703,16.968,7.817,-38.491
-0.856,0.022,-0.567,-5.493,76.66,18.188,5.568,-47.073
-0.922,0.01,-0.399,-5.859,78.369,16.907,3.634,-55.399
-0.952,-0.002,-0.249,-15.015,79.529,13.489,1.462,-63.007
-0.957,0.008,-0.105,-16.235,79.59,8.667,0.541,-70.304
-0.954,-0.032,0.016,9.827,64.026,10.559,-0.25,-78.978
-0.946,-0.111,0.121,-18.616,49.316,1.709,-2.061,-86.141
-0.947,-0.044,0.216,-5.188,30.09,-7.568,-2.685,-85.411
-0.941,-0.045,0.186,-3.174,14.954,-9.827,-3.463,-81.207
-0.996,0.036,0.19,-2.93,-0.183,-4.883,-2.404,-79.186
-1.005,0.016,0.144,-3.784,-3.601,2.93,-0.535,-79.271
-0.995,-0.01,0.153,-3.784,-2.869,5.798,-0.053,-80.301
-0.999,-0.012,0.155,3.235,-1.038,5.066,0.415,-80.855
-0.975,0.005,0.192,-2.38,-0.488,0,-0.024,-80.799
-0.99,0.028,0.165,3.723,-5.127,-1.648,0.15,-80.466
-0.962,0.003,0.202,3.113,-14.282,0.916,0.344,-79.684
-0.892,0.033,0.223,4.517,-41.26,-0.488,1.007,-78.391
-0.88,-0.019,0.115,4.333,-79.59,-7.568,0.675,-79.262
-0.883,0.026,-0.082,5.005,-114.258,-11.719,0.672,-82.761
-0.813,-0.003,-0.376,8.606,-129.272,-17.761,0.603,-87.921
-0.696,0.054,-0.564,-0.916,-136.047,-18.127,0.978,-74.466
-0.55,0.016,-0.805,-12.024,-136.902,-12.878,1.539,-58.127
-0.397,-0.042,-1.035,1.404,-142.212,-2.93,0.392,-41.463
-0.221,0.035,-1.024,-22.766,-135.498,3.296,0.939,-28.537
0.016,0.139,-1.044,22.522,-146.606,7.996,2.099,-16.427
0.224,0.145,-1.065,-16.296,-134.155,0.854,3.802,-5.184
0.38,0.089,-0.959,-2.747,-117.676,-3.113,5.67,5.53
0.578,0.1,-0.919,15.808,-108.521,-0.366,6.485,16.598
0.677,0.088,-0.885,20.752,-89.661,-5.554,5.665,25.752
0.662,0.101,-0.923,4.822,-66.895,-0.366,4.972,31.789
0.829,-0.096,-0.82,20.752,-56.702,14.16,2.462,37.706
0.765,0.078,-0.661,-17.761,-20.203,7.996,2.218,41.691
0.797,0.222,-0.63,10.498,-7.874,9.338,4.044,45.038
0.814,0.164,-0.589,20.569,-2.991,7.568,5.01,49.624
0.805,0.087,-0.584,-20.569,-8.24,14.282,7.787,51.558
0.877,0.1,-0.416,-28.442,-8.911,10.01,8.191,55.162
0.812,0.072,-0.569,-17.212,-13.367,3.296,6.092,56.38
0.818,0.155,-0.575,0.183,-7.141,-2.258,5.971,56.608
0.859,0.094,-0.531,3.662,-3.723,-0.305,6.047,57.645
0.828,0.052,-0.451,18.616,-10.925,-1.892,5.396,56.955
0.906,0.114,-0.444,6.226,-6.958,-5.859,5.983,59.09
,,,,,,,
,,,,,,,
0.852,0.147,-0.604,-2.686,26.794,1.953,5.807,59.005
0.838,0.172,-0.706,-2.93,41.077,3.296,6.799,56.601
0.816,0.165,-0.756,2.258,66.04,5.981,8.047,52.896
0.809,0.178,-0.832,-5.066,93.384,6.165,8.555,48.106
0.679,0.188,-0.953,-1.587,109.192,9.216,8.851,43.39
0.573,0.139,-1.057,-7.629,124.084,14.221,8.28,38.16
0.382,0.173,-1.112,6.287,125,11.719,8.297,31.335
0.154,0.159,-1.115,8.606,125.854,10.803,8.15,22.628
-0.011,0.19,-1,2.014,128.479,12.756,8.498,14.213
-0.202,0.165,-0.973,-7.385,124.207,12.512,9.258,4.34
-0.392,0.116,-0.891,-3.418,117.065,13.855,8.942,-6.395
-0.536,0.109,-0.783,-9.644,110.962,13.184,8.646,-17.175
-0.671,0.108,-0.652,-10.132,104.248,11.963,7.559,-28.368
-0.76,0.136,-0.484,-1.038,93.384,12.085,7.297,-39.637
-0.84,0.101,-0.336,-15.198,88.684,11.475,7.196,-50.671
-0.953,-0.047,-0.307,0.793,87.341,16.968,4.636,-60.77
-0.949,-0.042,-0.133,4.272,86.609,19.226,2.284,-70.078
-0.93,-0.031,0.069,11.169,76.172,13.184,-0.29,-79.089
-0.948,-0.086,0.242,-0.916,50.354,2.869,-3.111,-86.326
-0.943,-0.083,0.212,4.944,17.273,-7.202,-3.65,-83.059
-0.954,0.036,0.201,-7.996,4.089,-7.385,-2.443,-78.866
-0.976,-0.024,0.148,0.671,-1.709,0.183,-2.307,-77.902
-1.008,-0.016,0.158,-1.038,-2.991,2.93,-1.272,-79.427
-1.001,-0.042,0.138,-2.869,-1.16,2.441,-0.673,-80.667
-0.995,-0.032,0.13,-5.127,-1.282,0.916,-1.636,-81.625
-0.978,-0.049,0.143,4.395,-2.991,1.404,-1.99,-81.632
-0.985,-0.047,0.152,0.793,-4.517,2.258,-2.449,-81.538
-0.962,-0.009,0.164,8.301,-13.428,1.221,-1.998,-81.216
-0.917,-0.043,0.169,2.441,-32.41,-2.197,-2.192,-80.453
-0.89,-0.009,0.107,6.714,-64.636,-10.01,-1.634,-80.881
-0.867,-0.004,-0.041,1.099,-100.403,-15.564,-1.023,-83.642
-0.77,-0.019,-0.191,11.353,-125.366,-19.165,-1.253,-88.545
-0.7,-0.019,-0.622,5.249,-153.503,-20.935,-0.883,-76.94
-0.575,0.035,-1.065,22.888,-162.415,-12.451,-0.116,-56.617
-0.434,0.309,-0.928,-15.259,-147.522,-0.488,4.678,-41.28
-0.233,0.192,-0.929,-12.634,-132.019,-4.578,7.303,-28.449
-0.026,0.178,-0.866,-11.353,-120.056,-13.733,10.144,-18.195
0.156,0.119,-0.92,-2.625,-115.295,-16.541,12.233,-8.183
0.32,0.126,-1.037,-4.089,-110.84,-13.733,9.297,3.273
0.444,0.093,-1.106,12.146,-107.727,-8.423,7.302,12.707
0.615,0.181,-0.84,24.231,-95.032,-17.273,7.059,21.286
0.618,0.296,-0.864,26.489,-88.867,-8.728,9.133,27.04
0.756,0.045,-0.799,19.104,-80.322,-10.62,8.05,33.594
0.908,0.184,-0.578,2.258,-30.273,1.343,9.481,42.501
0.758,0.17,-0.617,-14.587,-27.405,12.39,9.453,45.951
0.913,0.186,-0.497,9.277,-26.794,2.625,7.989,52.517
0.85,0.168,-0.445,-5.92,-25.146,1.892,9.932,56.715
0.904,0.169,-0.419,-8.301,-15.808,7.935,9.937,58.534
0.85,0.141,-0.488,-9.888,-9.521,-1.038,9.497,60.81
0.912,0.14,-0.496,1.282,-2.075,-2.197,8.851,60.999
0.905,0.112,-0.432,-1.77,2.075,-1.526,7.973,61.747
0.872,0.139,-0.408,-2.869,-0.793,-1.77,7.609,61.777
0.901,0.121,-0.411,-8.667,0.488,-0.61,7.306,63.108
0.896,0.108,-0.448,-4.272,-1.831,0.061,6.912,63.711
0.892,0.104,-0.409,5.371,1.953,0.244,6.844,63.935
0.91,0.155,-0.401,3.784,-1.282,-0.732,7.015,64.203
,,,,,,,
,,,,,,,
0.786,0.141,-0.818,-5.859,77.148,12.878,7.136,58.469
0.696,0.21,-0.933,-3.235,104.187,13.794,8.335,51.275
0.608,0.19,-1.035,2.747,123.84,16.174,9.026,42.6
0.432,0.223,-1.056,8.85,134.216,18.25,9.426,32.771
0.266,0.206,-1.036,1.892,136.169,17.944,10.371,25.786
0.036,0.168,-1.074,4.15,136.047,21.24,10.107,17.438
-0.199,0.282,-0.934,13.306,127.869,22.705,11.991,7.274
-0.356,0.263,-0.794,-6.042,110.596,21.24,13.437,-3.667
-0.509,0.141,-0.774,-18.738,99.609,22.156,12.914,-15.623
-0.637,0.159,-0.696,-2.197,92.102,20.508,13.123,-27.224
-0.764,0.123,-0.648,-6.714,85.022,19.226,10.533,-37.152
-0.875,0.176,-0.514,7.141,82.703,19.836,8.883,-45.901
-0.896,0.128,-0.236,0.671,89.172,15.991,8.769,-55.579
-0.946,0.084,-0.137,31.433,79.773,24.78,7.654,-65.078
-0.943,-0.022,-0.042,5.737,66.895,24.109,5.541,-74.738
-0.965,-0.044,0.103,-5.066,38.147,14.465,2.22,-84.743
-0.946,-0.09,0.14,-5.981,10.315,2.991,-1.088,-88.548
-0.973,-0.032,0.087,-2.686,-6.287,-2.075,-2.805,-84.87
-1.021,0.002,0.023,-4.578,-7.568,0.977,-2.395,-84.307
-1.036,-0.022,0.006,-1.221,-5.554,3.784,-2.041,-85.784
-1.005,-0.055,0.032,3.906,-5.859,-0.061,-1.521,-87.407
-0.989,-0.044,0.03,6.653,-7.263,-2.136,-1.688,-87.879
-0.975,-0.051,0.063,9.521,-21.851,-5.31,-2.467,-86.905
-0.92,-0.059,0.019,23.01,-51.514,-16.541,-3.079,-86.267
-0.92,0.073,-0.107,16.541,-82.336,-23.682,-1.222,-88.776
-0.892,-0.011,-0.357,2.319,-90.21,-29.724,-0.736,-84.065
-0.812,0.085,-0.495,0.61,-101.746,-27.832,1.385,-75.073
-0.626,0.183,-0.537,8.545,-122.437,-33.02,5.275,-64.753
-0.424,0.199,-0.767,23.682,-145.081,-40.344,7.437,-51.324
-0.271,0.302,-0.924,12.329,-151.855,-40.405,12.534,-37.012
-0.104,0.278,-1.031,-1.587,-137.329,-36.865,15.13,-22.763
0.075,0.328,-1.148,-5.859,-117.615,-29.114,15.709,-10.206
0.207,0.344,-1.078,3.113,-98.022,-29.724,16.672,-1.218
0.327,0.285,-1.06,1.831,-81.604,-23.254,15.869,6.426
0.436,0.247,-1.079,6.958,-69.519,-18.616,15.016,13.005
0.534,0.213,-0.946,0.916,-57.007,-17.578,13.82,19.274
0.601,0.235,-0.85,7.874,-56.58,-14.709,12.633,25.093
0.702,0.224,-0.782,8.057,-54.932,-13.245,12.033,31.088
0.761,0.178,-0.711,10.01,-54.993,-14.587,11.447,37.413
0.813,0.284,-0.616,-1.099,-46.448,-8.85,12.561,42.877
0.796,0.221,-0.554,-1.587,-30.64,-3.723,12.566,47.518
0.84,0.131,-0.48,-5.249,-15.869,14.404,11.537,52.116
0.884,0.231,-0.442,-13.977,-23.376,0.122,12.428,55.812
0.858,0.106,-0.495,-31.25,-15.198,8.24,10.003,58.281
0.862,0.206,-0.392,-13.184,-11.597,-2.075,9.833,60.725
0.906,0.086,-0.466,-19.775,-12.024,3.052,9.078,61.545
0.915,0.167,-0.403,13.855,2.563,-8.789,8.139,62.481
0.917,0.229,-0.424,-3.784,9.705,3.723,9.824,63.181
0.976,0.135,-0.396,30.762,6.042,-3.784,8.6,64.176
0.914,0.111,-0.425,-42.053,-0.977,9.827,8.961,64.591
0.964,0.126,-0.408,16.113,22.827,8.972,8.308,64.998
0.854,0.132,-0.441,-4.028,3.601,-1.282,7.066,64.807
0.932,0.082,-0.489,-29.785,3.845,-0.183,6.338,63.585
0.85,0.068,-0.49,-42.236,-11.841,-1.587,5.784,62.516
,,,,,,,
,,,,,,,
0.862,0.153,-0.636,-4.333,46.082,5.554,6.134,59.006
0.823,0.181,-0.775,-14.954,73.303,11.047,6.573,54.878
0.769,0.159,-0.891,9.583,93.75,12.512,7.407,49.239
0.685,0.151,-1,-3.906,110.413,15.381,8.054,43.011
0.57,0.171,-1.016,8.85,124.512,17.029,8.105,37.259
0.385,0.182,-1.032,14.221,131.409,15.381,8.172,31.084
0.142,0.214,-1.041,8.606,127.686,17.944,9.141,23.226
-0.046,0.221,-0.959,2.563,123.84,14.648,10.674,14.285
-0.188,0.188,-0.879,-3.052,119.324,16.602,11.597,4.191
-0.377,0.107,-0.857,4.761,110.168,15.076,10.97,-7.016
-0.566,0.156,-0.83,-4.272,101.257,17.517,10.246,-18.155
-0.674,0.059,-0.761,-37.72,108.643,11.841,7.66,-28.201
-0.829,0.085,-0.561,8.789,99.609,11.658,5.973,-38.851
-0.868,0.037,-0.442,1.099,86.06,8.789,4.899,-48.306
-0.906,0.09,-0.206,20.691,75.684,9.888,4.038,-58.744
-0.97,0.087,-0.12,7.69,72.083,15.015,4.466,-69.126
-0.968,0.029,0.017,-2.197,66.406,15.137,3.661,-77.993
-0.97,-0.063,0.055,-17.395,49.744,6.958,2.138,-85.632
-0.991,0,0.063,-20.081,38.696,-15.198,0.778,-89.191
-0.95,0.079,0.192,-17.578,26.794,-5.31,0.667,-85.136
-0.933,0.074,0.203,0.977,15.381,-4.7,1.327,-82.288
-0.936,0.121,0.208,3.662,1.587,-2.197,4.053,-79.309
-0.981,0.057,0.182,1.77,-6.409,3.357,4.882,-77.378
-0.988,0.04,0.171,-1.465,-6.836,3.845,4.274,-77.979
-0.961,0.07,0.216,4.028,-10.62,2.686,4.183,-77.904
-0.946,0.045,0.204,12.146,-23.071,7.019,3.069,-78.314
-0.97,-0.009,0.084,7.69,-43.274,5.066,2.125,-79.856
-0.989,0.094,0.064,5.371,-50.232,-2.258,2.933,-81.138
-0.939,0.012,-0.02,26.184,-67.993,-10.01,2.113,-84.631
-0.828,-0.008,-0.107,21.667,-91.309,-17.944,1.372,-88.593
-0.802,0.042,-0.296,15.625,-117.432,-20.752,2.246,-83.803
-0.738,0.131,-0.606,9.766,-129.761,-22.461,2.917,-72.475
-0.598,0.154,-0.77,13.916,-131.836,-27.832,5.263,-58.649
-0.381,0.129,-0.885,6.409,-133.301,-36.133,7.242,-44.132
-0.197,0.109,-1.105,17.151,-135.864,-39.063,7.698,-29.33
-0.008,0.203,-1.228,6.592,-130.92,-30.762,8.146,-16.365
0.143,0.169,-1.202,-8.057,-120.789,-25.513,7.826,-5.665
0.297,0.251,-1.091,-17.334,-108.398,-19.836,8.984,2.876
0.449,0.22,-1.022,-5.798,-94.177,-14.893,10.324,10.789
0.537,0.236,-0.97,12.695,-82.275,-15.808,10.98,18.066
0.664,0.196,-0.853,0.732,-80.2,-11.23,11.625,25.744
0.743,0.131,-0.762,12.451,-75.745,-9.888,10.257,32.96
0.797,0.121,-0.741,2.869,-54.504,-7.324,9.017,38.916
0.861,0.251,-0.538,-7.751,-49.255,-3.052,9.414,45.831
0.829,0.133,-0.556,1.953,-38.269,-2.319,8.717,50.377
0.886,0.064,-0.509,15.625,-16.541,1.953,7.882,54.426
0.877,0.132,-0.592,-38.757,-8.301,7.019,8.066,56.667
0.867,0.087,-0.535,-7.874,11.108,12.756,5.795,57.167
0.87,0.084,-0.447,12.634,7.324,8.606,5.149,58.858
0.844,0.025,-0.55,-31.128,7.263,6.531,4.614,58.151
0.932,0.021,-0.474,13.977,0.122,0.061,3.067,60.145
0.788,0.113,-0.506,13.245,-3.662,-3.174,3.512,59.906
0.885,0.155,-0.471,-3.296,-3.479,-1.953,4.505,59.587
0.833,0.155,-0.498,18.066,-4.639,-4.395,6.416,59.835
0.884,0.151,-0.488,-6.409,-2.441,-0.793,8.342,58.899
0.838,0.066,-0.493,-3.906,2.136,3.052,7.59,59.576
0.876,0.209,-0.425,11.658,4.028,-2.686,8.421,59.878
0.865,0.149,-0.416,-5.31,3.174,-1.587,8.356,61.111
,,,,,,,
,,,,,,,
0.849,0.117,-0.619,-7.141,32.532,5.493,7.803,59.41
0.8,0.117,-0.704,0.977,48.218,8.667,8.371,56.51
0.767,0.154,-0.802,-10.803,71.655,9.338,7.373,51.634
0.708,0.145,-0.863,2.563,86.06,9.216,7.033,45.829
0.615,0.164,-0.939,-1.77,98.511,9.46,7.525,40.72
0.487,0.115,-1.019,-1.587,109.68,10.803,7.413,35.087
0.315,0.139,-1.065,12.695,110.107,10.498,7.24,28.423
0.156,0.215,-1.028,5.554,109.192,8.728,8.28,20.984
0.014,0.158,-0.993,8.24,103.821,11.047,8.45,13.16
-0.184,0.177,-0.96,18.677,94.727,13.55,9.629,4.183
-0.3,0.16,-0.944,0.977,86.304,11.902,10.219,-4.502
-0.482,0.162,-1.001,3.174,76.599,12.634,9.296,-13.529
-0.634,0.139,-0.945,13.306,69.885,13.855,8.688,-22.279
-0.698,0.183,-0.757,3.845,69.519,14.038,8.681,-29.706
-0.747,0.135,-0.644,-0.427,67.444,10.132,8.354,-36.944
-0.817,0.175,-0.533,-12.146,72.144,10.437,8.8,-44.478
-0.901,0.093,-0.476,2.563,75.134,17.822,8.384,-51.884
-0.916,0.011,-0.418,-5.737,75.989,18.25,5.959,-57.997
-0.946,0.036,-0.247,-1.16,73.059,12.939,4.552,-64.555
-0.927,0.024,-0.06,18.921,61.829,13.489,2.41,-71.817
-0.957,-0.021,0.002,1.648,44.128,8.484,0.752,-79.047
-0.987,-0.022,0.045,-3.418,17.456,4.211,0.26,-86.086
-0.977,-0.019,0.008,0.305,-0.122,2.441,-0.562,-89.432
-1.01,-0.011,0.016,2.686,-4.333,0.305,-1.057,-88.531
-1.021,-0.033,-0.011,2.686,-1.099,1.587,-1.215,-88.533
-1.013,-0.005,-0.029,3.845,-1.221,0.916,-0.97,-89.001
-1.014,-0.002,-0.021,0.977,-3.967,0.305,-0.727,-89.029
-1.016,-0.012,-0.012,2.014,-2.197,0,-0.735,-88.73
-1.019,-0.037,-0.014,4.822,-1.587,0.244,-0.789,-88.667
-1.018,-0.001,-0.042,0.061,-4.028,0.488,-0.731,-88.541
-1,-0.032,-0.032,1.587,-5.676,0.366,-1.158,-88.163
-0.942,-0.059,0.036,14.282,-25.94,-6.653,-1.859,-87.991
-0.889,0.023,-0.015,7.385,-62.927,-21.79,-1.028,-88.696
-0.858,-0.011,-0.118,9.644,-89.355,-24.597,-1.222,-87.646
-0.775,0.083,-0.279,9.521,-112.854,-27.954,0.598,-83.767
-0.661,0.066,-0.553,-4.395,-132.202,-30.151,2.772,-72.914
-0.499,0.093,-0.809,12.939,-149.353,-31.433,4.003,-57.571
-0.242,0.184,-1.16,13.672,-170.105,-32.043,6.845,-37.532
0.028,0.18,-1.26,-19.104,-173.34,-32.471,7.404,-19.784
0.25,0.218,-1.226,-15.442,-148.56,-29.358,8.565,-5.858
0.397,0.248,-1.118,-10.559,-120.178,-20.752,9.838,5.121
0.487,0.215,-1.021,-2.991,-88.257,-14.282,10.231,13.885
0.558,0.176,-0.974,9.216,-66.101,-13.245,10.424,20.945
0.608,0.213,-0.919,7.324,-56.152,-6.897,10.67,26.45
0.729,0.151,-0.805,17.883,-62.866,-5.676,9.696,32.118
0.785,0.119,-0.703,3.906,-57.312,-5.249,8.648,37.726
0.837,0.195,-0.542,8.606,-53.894,-2.502,9.183,44.181
0.868,0.051,-0.498,27.954,-51.819,-1.343,7.164,51.087
0.873,0.046,-0.502,-54.26,-25.635,8.362,5.813,55.859
0.871,0.129,-0.484,-2.38,-20.264,4.15,6.011,59.058
0.896,0.099,-0.5,-13.306,-11.658,7.019,4.618,60.201
0.887,0.107,-0.413,-5.493,-4.517,4.456,5.44,61.24
0.901,0.108,-0.335,0.793,-5.798,-0.244,6.397,63.313
0.94,0.075,-0.36,3.723,-5.737,-1.831,5.611,65.471
0.927,0.137,-0.338,-0.916,-6.836,-3.235,6.203,67.586
0.944,0.14,-0.38,-14.465,-3.784,-0.977,6.606,68.183
0.917,0.12,-0.374,-13.672,-3.296,-0.183,6.728,67.726
0.955,0.089,-0.324,-2.563,0.305,-0.549,6.92,68.202
,,,,,,,
,,,,,,,
0.887,0.071,-0.448,6.042,-1.526,-0.549,5.981,66.864
0.888,0.11,-0.49,-2.747,8.057,1.282,5.571,65.251
0.872,0.085,-0.621,-8.667,32.043,6.226,4.979,62
0.837,0.098,-0.784,4.578,65.918,11.169,4.945,55.768
0.81,0.127,-0.874,4.028,96.008,16.846,5.463,50.581
0.748,0.162,-0.905,-2.686,116.516,19.043,5.908,45.43
0.66,0.163,-0.976,-6.714,132.935,18.005,6.72,40.466
0.473,0.169,-1.027,-1.709,140.93,14.526,7.633,35.079
0.259,0.14,-1.068,4.028,140.747,13.367,7.995,27.995
-0.021,0.142,-1.008,1.526,133.179,13.977,8.111,18.392
-0.212,0.125,-0.887,1.892,120.972,14.465,8.133,7.058
-0.381,0.127,-0.817,-2.502,106.567,13.672,7.989,-5.316
-0.567,0.109,-0.828,0,92.834,12.634,7.662,-18.274
-0.677,0.083,-0.729,3.357,83.801,11.23,6.752,-29.173
-0.814,0.084,-0.785,-5.066,74.951,12.085,5.752,-37.446
-0.854,0.12,-0.458,-26.428,85.022,11.108,5.584,-45.834
-0.906,-0.04,-0.317,12.756,79.102,8.606,3.548,-54.696
-0.943,0.059,-0.19,13.428,68.176,6.531,3.252,-63.357
-0.963,0.038,-0.11,-0.061,57.373,6.775,2.656,-73.446
-0.975,-0.006,-0.031,-2.686,45.837,6.592,0.77,-80.262
-0.998,-0.067,-0.001,1.099,34.424,3.601,0.354,-85.09
-1.011,-0.01,0.015,-9.949,27.1,-0.427,-0.662,-88.046
-0.995,-0.074,0.062,-26.123,28.809,-2.991,-2.261,-87.646
-0.973,0.028,0.157,-26.733,26.55,-7.874,-1.782,-86.201
-0.968,0.056,0.13,-9.705,15.625,-8.85,-0.004,-84.732
-0.956,0.163,0.192,-2.075,2.136,-7.629,2.528,-81.705
-0.989,0.069,0.137,2.869,-5.188,0.793,4.601,-79.908
-0.983,0.056,0.13,11.536,-16.785,8.728,4.998,-80.079
-0.933,0.035,0.12,10.132,-38.391,9.888,4.738,-80.259
-0.977,-0.016,0.017,7.812,-61.89,6.897,2.122,-83.69
-0.927,-0.046,-0.143,8.972,-80.994,-1.465,0.435,-88.085
-0.879,-0.03,-0.316,20.63,-100.159,-10.681,-0.87,-84.987
-0.783,-0.024,-0.543,23.621,-119.263,-19.287,-1.793,-74.469
-0.621,0.042,-0.768,10.986,-135.742,-22.644,-0.918,-61.118
-0.399,0.042,-1.029,17.334,-145.996,-17.944,0.447,-45.264
-0.173,0.046,-1.015,6.775,-141.235,-20.996,1.553,-30.482
0.151,0.036,-1.111,31.86,-139.404,-33.63,2.332,-14.86
0.385,0.098,-1.253,-0.977,-131.287,-34.851,2.885,-0.463
0.484,0.201,-1.116,-9.155,-102.173,-20.264,4.761,10.641
0.581,0.192,-1.021,8.545,-82.581,-14.526,6.289,19.469
0.656,0.219,-0.891,6.897,-59.875,-7.141,8.456,25.901
0.767,0.153,-0.747,5.554,-58.044,-5.432,9.588,32.865
0.787,0.148,-0.647,-3.418,-44.373,-4.639,9.338,39.526
0.826,0.189,-0.548,10.071,-31.86,-1.526,9.684,46.102
0.839,0.144,-0.493,-19.653,-22.278,0,8.926,51.982
0.873,0.171,-0.504,1.587,-12.939,-0.793,9.295,55.481
0.842,0.116,-0.498,2.258,-6.165,1.343,8.918,57.724
0.849,0.114,-0.452,-3.906,-7.324,1.099,7.917,59.292
0.892,0.08,-0.44,5.127,-14.099,-3.174,6.958,60.517
0.857,0.097,-0.446,0.488,-13.062,-4.456,5.961,61.338
0.91,0.141,-0.412,-3.845,-8.118,-3.54,6.286,62.814
0.862,0.095,-0.447,-7.446,-1.343,-1.831,5.992,63.012
0.918,0.072,-0.416,-9.949,-0.183,1.526,5.867,63.506
0.906,0.073,-0.379,-8.911,-3.601,-1.343,5.509,64.731
0.903,0.072,-0.401,1.16,-1.099,-0.305,4.528,65.017
0.931,0.077,-0.418,4.639,1.953,-0.732,4.217,65.848
0.97,0.032,-0.434,0.916,1.038,0.671,3.595,66.008
,,,,,,,
,,,,,,,
0.773,0.127,-0.852,4.944,79.224,14.954,4.24,59.261
0.712,0.127,-0.994,4.333,103.943,17.029,4.796,51.2
0.567,0.118,-0.996,-7.69,121.704,13.855,5.181,42.471
0.401,0.092,-1.042,1.282,128.174,10.986,5.767,32.075
0.162,0.151,-0.969,6.958,124.634,6.104,6.331,24.538
-0.026,0.117,-0.892,2.563,113.403,3.113,6.725,15.678
-0.231,0.149,-0.824,2.502,93.079,2.136,7.742,4.633
-0.411,0.159,-0.781,-0.61,79.163,4.456,9.332,-8.21
-0.574,0.086,-0.819,-1.892,68.054,9.705,8.205,-20.32
-0.706,0.116,-0.739,7.629,64.697,10.437,7.853,-30.972
-0.8,0.072,-0.715,-10.01,68.298,11.78,6.288,-38.923
-0.861,-0.015,-0.634,2.197,70.19,13.306,3.602,-45.218
-0.883,0.061,-0.457,-12.085,65.369,9.888,3.259,-51.809
-0.922,0.006,-0.324,-6.836,60.425,12.085,1.75,-58.367
-0.946,0.039,-0.199,4.822,60.486,14.221,1.315,-65.878
-0.976,-0.09,-0.085,6.042,47.974,12.146,0.226,-74.041
-0.979,-0.104,0.048,17.639,30.029,1.831,-2.216,-81.376
-0.972,-0.075,0.006,-3.479,4.15,-3.479,-3.399,-85.193
-1,-0.048,-0.01,-3.418,-1.343,-0.732,-4.625,-85.335
-1.015,-0.057,-0.008,-0.366,1.953,-0.122,-4.11,-85.86
-1.011,-0.05,-0.027,-0.977,0.977,-1.831,-3.314,-86.637
-1.018,-0.062,-0.072,-0.427,0.793,1.831,-3.083,-86.497
-0.986,-0.069,-0.024,1.465,3.174,1.709,-3.38,-86.142
-0.983,-0.029,0.022,4.944,-6.897,-3.906,-2.998,-86.676
-0.992,-0.071,0.018,-4.272,-17.334,-2.502,-3.305,-86.601
-0.958,-0.068,0.008,-3.601,-35.889,-1.404,-3.449,-86.533
-0.87,-0.006,-0.053,11.536,-69.702,-7.568,-2.609,-87.39
-0.775,0.041,-0.179,15.808,-112.915,-23.621,-1.643,-86.34
-0.673,0.053,-0.449,13.55,-145.264,-25.635,0.345,-78.389
-0.477,0.096,-0.875,14.343,-162.048,-20.264,3.301,-60.723
-0.214,0.081,-1.04,16.907,-160.767,-18.921,4.672,-39.899
0.007,0.137,-1.173,3.479,-153.381,-17.151,5.533,-20.882
0.275,0.129,-1.153,2.38,-145.081,-16.418,5.932,-5.479
0.499,0.127,-1.132,5.249,-126.221,-17.883,5.961,7.135
0.606,0.167,-1.017,5.249,-93.628,-12.024,6.807,17.08
0.666,0.173,-0.876,16.602,-72.693,-7.812,7.3,25.843
0.778,0.176,-0.739,9.705,-56.641,-2.869,8.062,33.712
0.774,0.135,-0.682,1.221,-38.269,-1.953,8.517,39.898
0.841,0.062,-0.637,5.615,-42.419,-0.977,7.358,45.703
0.793,0.134,-0.543,2.747,-38.147,-4.211,7.042,50.252
0.883,0.131,-0.499,-16.174,-18.799,2.136,6.518,53.839
0.84,0.111,-0.482,10.315,-11.841,-7.446,6.272,56.707
0.825,0.146,-0.422,15.747,-6.409,-1.16,7.688,58.928
1.07,-0.33,-0.565,-16.052,9.644,42.603,0.802,61.457
0.893,0.045,-0.412,-2.747,-7.69,4.883,-0.404,62.599
0.872,0.14,-0.362,-30.029,0.732,3.479,-0.005,64.317
0.88,-0.005,-0.406,23.682,-5.798,-3.235,-2.1,64.77
0.922,0.18,-0.375,-1.404,-5.676,-3.052,5.274,65.916
0.913,0.121,-0.437,-11.292,-4.089,0.549,6.338,65.466
0.923,0.125,-0.382,-0.427,5.249,0.427,6.039,65.557
,,,,,,,
,,,,,,,
0.833,0.177,-0.727,0.183,64.636,7.507,8.405,60.726
0.805,0.182,-0.859,-2.563,93.018,14.832,8.135,54.475
0.694,0.197,-1.018,-3.479,119.812,21.24,8.748,46.738
0.518,0.177,-1.094,-2.563,141.357,21.118,8.915,37.078
0.299,0.128,-1.09,5.737,151.184,20.325,8.321,29.339
0.014,0.2,-1.056,12.756,150.208,22.461,8.824,19.453
-0.224,0.198,-0.923,-9.888,144.897,20.325,9.5,8.167
-0.461,0.152,-0.819,-9.094,128.906,17.7,9.861,-5.387
-0.675,0.144,-0.733,-9.399,112.122,17.395,10.416,-20.505
-0.801,0.052,-0.521,3.784,94.116,15.808,8.404,-35.364
-0.899,0.138,-0.323,2.563,78.064,11.78,7.449,-49.237
-0.939,0.081,-0.166,-0.977,74.219,16.296,6.31,-61.602
-0.973,0.012,-0.073,-3.296,70.435,9.216,4.289,-72.773
-0.967,-0.003,0.109,-2.197,58.289,0.793,3.439,-82.341
-0.957,0.012,0.2,7.935,24.719,-0.793,1.529,-88.15
-0.949,0.047,0.161,-4.761,0.732,-2.319,1.019,-84.022
-1.002,0.049,0.096,-2.686,-8.789,3.052,1.546,-81.541
-1.021,0.008,0.084,1.587,-6.592,7.324,1.687,-81.975
-1.032,0.014,0.073,0.244,-6.531,4.272,1.692,-83.866
-1.008,-0.012,0.074,2.258,-3.357,1.831,0.841,-85.323
-0.994,-0.002,0.084,4.15,-3.357,0.671,0.12,-85.563
-0.996,-0.013,0.072,3.113,-9.338,0.977,-0.182,-85.701
-1.014,-0.031,0.043,6.653,-11.963,2.625,-0.819,-86.026
-0.992,-0.036,0.054,5.432,-15.198,1.221,-1.172,-86.206
-0.927,0.006,0.076,13.611,-42.236,-2.319,-1.078,-86.288
-0.913,-0.013,-0.066,7.812,-80.261,-10.254,-1.098,-88.083
-0.826,0.031,-0.224,12.573,-113.77,-14.282,-0.187,-87.475
-0.662,0.007,-0.499,11.23,-142.822,-24.963,0.526,-77.885
-0.459,0.02,-0.896,16.968,-160.156,-25.024,0.788,-59.485
-0.238,0.065,-1.193,-9.644,-162.781,-19.653,1.988,-37.82
-0.032,0.008,-1.392,-7.629,-145.081,-7.507,1.373,-19.254
0.181,0.024,-1.284,-3.418,-116.028,-9.888,1.415,-6.556
0.325,0.065,-1.189,2.075,-91.064,-12.146,1.842,2.678
0.424,0.083,-1.103,8.362,-75.439,-6.47,2.044,10.239
0.52,0.107,-0.991,16.357,-63.721,-6.714,3.327,17.587
0.619,0.132,-0.894,10.315,-53.772,-5.981,4.815,24.231
0.705,0.135,-0.787,10.498,-50.659,-6.165,5.913,30.812
0.75,0.11,-0.69,8.85,-50.415,-6.042,6.497,37.371
0.842,0.148,-0.532,0.916,-33.997,-5.859,7.266,44.665
0.832,0.144,-0.551,-5.92,-39.124,-4.211,7.565,50.108
0.894,0.044,-0.502,-12.817,-26.428,5.676,6.332,55.057
0.856,0.095,-0.526,-35.645,-19.836,3.601,6.115,57.817
0.893,0.035,-0.555,-13.55,-5.676,5.92,4.455,58.165
0.885,0.079,-0.475,-2.502,-2.075,6.775,3.536,59.547
0.845,0.091,-0.417,2.93,-2.075,3.723,4.28,60.152
0.892,0.058,-0.434,3.052,-4.761,-2.136,3.769,61.617
0.89,0.088,-0.42,6.897,-6.042,-6.409,4.61,63.201
0.907,0.09,-0.428,-4.395,-1.465,-1.282,4.776,63.922
0.937,0.089,-0.361,-1.343,-0.549,-2.319,4.674,65.209
0.909,0.061,-0.405,1.953,-1.526,-1.099,4.704,65.678
0.927,0.068,-0.416,-0.244,1.282,0.671,4.38,65.994
0.89,0.062,-0.411,-0.183,1.343,0.549,4.001,66.18
,,,,,,,
,,,,,,,
0.723,0.065,-0.887,3.174,89.539,6.409,3.616,58.255
0.614,0.073,-1.033,9.46,106.934,8.606,3.672,48.814
0.445,0.131,-1.069,-6.226,117.554,7.751,4.389,38.026
0.268,0.101,-1.054,3.052,117.859,7.507,4.677,26.789
0.084,0.108,-1.064,-1.953,116.15,6.897,5.311,18.405
-0.165,0.095,-1.025,-1.16,114.746,8.85,5.835,8.491
-0.351,0.078,-0.93,-2.747,107.91,9.827,5.358,-2.283
-0.545,0.055,-0.844,-2.197,99.976,10.193,4.823,-14.127
-0.664,0.045,-0.754,-0.977,90.149,7.202,3.948,-25.831
-0.779,0.049,-0.583,-3.479,79.651,9.705,3.33,-36.872
-0.867,0.066,-0.465,7.629,72.021,10.376,3.14,-47.094
-0.941,0.044,-0.37,1.099,70.984,7.935,2.976,-56.141
-0.953,0,-0.187,16.541,66.895,11.108,2.333,-65.509
-0.972,0.03,-0.062,8.972,55.115,14.465,2.065,-73.677
-0.966,-0.101,0.078,7.507,31.128,9.705,-0.387,-81.965
-0.969,-0.091,0.086,8.423,8.057,2.38,-2.395,-87.296
-1.002,-0.025,0.044,-5.554,-3.601,-0.916,-2.73,-86.533
-1.029,-0.051,-0.002,-6.775,-4.15,0.61,-3.853,-85.135
-1.021,-0.064,-0.036,0.793,-2.136,0,-3.279,-86.469
-1,-0.105,-0.035,2.686,-1.77,-0.305,-3.457,-86.519
-1.002,-0.017,-0.011,5.859,-4.578,-0.061,-3.346,-86.45
-1.001,-0.044,0,-2.136,-9.766,-2.014,-3.276,-86.519
-0.943,-0.103,0.091,7.385,-31.128,-8.362,-3.915,-86.033
-0.912,-0.065,-0.054,-4.15,-63.904,-15.93,-3.408,-86.57
-0.86,0.035,-0.229,7.385,-92.773,-14.526,-2.722,-85.985
-0.741,0.006,-0.497,7.324,-116.638,-22.217,-2.057,-78.547
-0.597,0.088,-0.755,12.39,-131.287,-22.583,1.065,-63.716
-0.419,0.118,-0.877,10.559,-134.338,-14.832,4.022,-47.82
-0.213,0.089,-1.133,-0.183,-141.357,-17.7,4.528,-31.007
0.059,0.095,-1.159,-2.563,-125.183,-15.015,5.45,-16.521
0.294,0.03,-1.193,1.16,-130.005,-11.841,4.354,-3.649
0.453,0.057,-1.13,0.793,-112.488,-6.287,3.342,7.313
0.571,0.1,-1.025,5.493,-91.187,-6.653,3.422,16.957
0.649,0.072,-0.907,1.953,-66.772,-4.578,3.162,24.77
0.694,0.058,-0.864,22.278,-56.702,-3.54,3.586,31.023
0.762,0.087,-0.699,7.08,-38.391,-3.967,4.12,37.332
0.779,0.135,-0.626,3.418,-19.775,-0.488,4.759,42.792
0.8,0.086,-0.607,9.216,-15.076,0.854,5.071,47.111
0.8,0.04,-0.593,-27.832,-3.479,4.578,4.933,50.952
0.763,0.18,-0.547,3.967,-2.319,0.916,6.39,52.474
0.823,0.106,-0.567,-29.663,-2.747,3.052,5.973,53.587
0.805,0.081,-0.594,-7.141,4.028,5.371,5.897,53.794
0.8,0.015,-0.663,43.762,7.996,6.47,5.484,53.037
0.599,0.878,-0.529,20.813,4.211,-1.953,15.735,49.459
0.877,0.096,-0.576,-52.734,-9.033,-7.385,15.408,49.914
0.316,0.337,-0.65,19.47,14.587,8.057,20.508,43.222
0.828,-0.033,-0.468,-7.019,-8.667,2.38,20.392,45.617
0.717,0.045,-0.576,4.517,8.057,2.563,7.122,49.808
0.856,0.058,-0.542,0.366,5.615,3.723,6.59,50.09
0.8,0.137,-0.48,-68.176,4.7,24.353,3.107,57.042
0.869,0.057,-0.558,-19.348,3.174,11.475,4.371,56.142
0.822,0.046,-0.568,19.165,5.859,-5.188,4.288,57.079
0.723,0.109,-0.573,-13.184,-5.493,-2.136,5.141,55.541
0.829,0.023,-0.589,-14.648,-1.831,3.418,3.386,54.659
0.866,0.035,-0.543,4.395,-2.014,0.854,3.076,54.826
0.842,-0.015,-0.563,3.418,-2.991,-2.808,2.188,55.102
,,,,,,,
,,,,,,,
0.672,0.041,-0.946,1.343,72.021,6.042,1.158,50.526
0.565,0.104,-0.981,-11.536,90.637,1.038,2.247,44.118
0.439,0.012,-1.104,-3.662,103.394,-2.136,1.864,35.002
0.272,-0.035,-1.169,1.709,119.568,-5.737,1.522,24.88
0.038,0.04,-1.118,4.944,124.023,-5.31,1.527,16.731
-0.168,0.071,-1.024,0.244,122.314,-3.052,1.138,7.504
-0.356,0.032,-0.921,6.958,109.375,-0.61,1.465,-2.885
-0.533,0.019,-0.875,15.198,90.637,4.272,2.275,-14.481
-0.678,0.046,-0.808,4.822,76.904,7.629,2.39,-25.522
-0.783,0.026,-0.629,4.822,78.003,11.658,1.749,-35.993
-0.864,0.029,-0.482,12.878,75.317,9.094,1.713,-45.63
-0.901,0.041,-0.294,8.057,74.768,5.188,2.078,-55.508
-0.945,-0.049,-0.169,1.221,71.411,7.507,0.697,-65.744
-0.96,-0.01,-0.1,12.695,60.852,8.789,0.172,-74.116
-0.972,-0.068,0.021,0.732,48.035,15.747,-1.286,-81.731
-0.972,-0.063,0.139,-3.052,33.569,12.695,-2.826,-86.737
-0.963,-0.152,0.13,7.141,7.507,1.953,-4.327,-84.842
-1.002,-0.042,0.143,5.737,-6.592,-1.648,-4.733,-82.115
-0.989,-0.061,0.126,-3.235,-5.127,2.136,-4.593,-80.95
-0.966,-0.074,0.155,2.441,-12.085,3.052,-4.758,-80.664
-0.96,-0.075,0.111,1.343,-28.564,1.16,-3.654,-81.415
-0.904,-0.126,0.026,25.391,-57.922,-5.554,-4.996,-82.003
-0.906,-0.05,-0.062,3.357,-85.693,-13.306,-4.964,-83.912
-0.845,-0.061,-0.315,12.024,-110.168,-18.86,-4.921,-83.797
-0.744,-0.045,-0.561,-5.981,-121.948,-19.714,-4.572,-74.33
-0.575,0.074,-0.887,-6.592,-129.944,-9.521,-1.314,-59.254
-0.451,0.117,-0.985,-8.667,-129.822,0.061,1.283,-43.563
-0.24,0.135,-0.998,-0.305,-122.986,0.854,4.048,-30.269
0.015,0.007,-1.102,-10.803,-119.324,-2.38,4.576,-17.417
0.176,-0.034,-1.154,11.597,-117.981,2.075,3.024,-6.718
0.385,-0.022,-1.121,22.644,-105.286,-1.892,1.127,4.386
0.502,0.001,-1.061,2.075,-81.909,-1.404,-0.599,13.651
0.572,0.05,-0.972,5.615,-56.396,-0.427,-0.064,20.782
0.646,0.03,-0.856,8.179,-38.33,2.197,0.743,27.698
0.67,0.036,-0.783,5.188,-17.944,0.427,1.526,33.052
0.691,0.066,-0.729,10.071,-3.723,-1.16,2.462,37.631
0.684,0.065,-0.721,-0.549,-2.014,3.601,2.744,41.002
0.696,0.027,-0.662,-4.944,-3.479,4.395,2.778,43.364
0.679,0.069,-0.723,13.55,-7.446,-3.235,3.286,44.035
0.596,0.062,-0.782,17.883,-14.587,-21.057,3.245,42.503
0.694,0.055,-0.825,-14.526,-1.099,1.526,3.038,41.619
0.694,0.052,-0.702,13.062,8.179,1.099,3.374,41.208
0.721,0.011,-0.701,-10.071,11.23,0.366,2.542,41.888
0.704,0.008,-0.672,1.953,4.944,0.427,1.784,44.094
0.738,0.021,-0.693,-3.662,-5.31,-2.258,1.331,45.879
0.734,0.019,-0.754,-3.052,-8.972,-1.77,0.844,45.753
0.735,0.015,-0.74,-4.028,-3.601,-1.221,0.891,45.501
0.732,-0.023,-0.71,1.404,0.977,-0.305,0.459,45.413
0.73,0,-0.679,-1.709,2.563,-2.075,0.162,45.47
,,,,,,,
,,,,,,,
0.697,0.072,-1.083,-8.545,108.398,14.648,0.846,42.004
0.598,0.092,-1.109,-8.423,137.207,13.245,1.787,37.563
0.361,0.125,-1.141,-4.15,160.461,4.639,3.545,30.666
0.077,0.113,-1.133,-17.639,166.748,2.747,4.798,21.128
-0.181,0.025,-0.943,-5.981,160.339,2.625,4.609,11.143
-0.422,0.088,-0.685,-13.062,138.672,-1.77,5.143,-2.403
-0.598,0.038,-0.492,-9.338,108.398,-5.92,4.393,-18.994
-0.745,0.063,-0.458,-12.024,85.632,0.305,3.805,-36.946
-0.906,0.048,-0.321,2.747,82.214,3.296,4.108,-53.573
-0.99,0.001,-0.279,21.79,74.463,5.859,2.398,-64.326
-0.977,-0.054,-0.072,28.198,68.298,9.46,0.88,-72.639
-0.972,-0.091,0.067,2.197,62.317,4.333,-1.416,-80.956
-0.942,-0.016,0.222,-29.358,44.25,-7.202,-2.368,-87.466
-0.952,0.027,0.212,-10.62,21.667,-11.475,-1.99,-83.317
-0.958,0.072,0.223,1.404,1.038,-2.869,-0.133,-79.272
-0.984,0.049,0.185,5.493,0.122,7.385,1.912,-77.477
-0.995,0.041,0.181,1.526,-1.587,5.92,2.716,-78.056
-0.995,-0.02,0.146,4.7,-1.892,2.075,2.029,-79.226
-0.989,0.006,0.151,5.188,-2.563,2.747,1.093,-80.437
-0.997,0.025,0.161,6.226,-1.465,3.235,0.742,-80.837
-1.017,0.027,0.128,8.179,-4.761,4.517,0.544,-81.641
-0.986,-0.049,0.128,3.906,-5.676,8.118,0.135,-81.897
-0.98,-0.031,0.13,7.812,-13.184,4.211,-0.402,-82.17
-0.998,-0.042,0.083,6.775,-19.775,7.446,-1.355,-83.145
-0.962,-0.016,0.151,8.545,-27.466,5.554,-1.995,-82.587
-0.928,-0.052,0.121,9.644,-54.443,-4.15,-2.067,-82.563
-0.872,-0.047,-0.045,17.151,-92.041,-11.902,-2.381,-84.728
-0.747,-0.007,-0.311,25.024,-136.536,-19.47,-1.983,-87.583
-0.6,0.011,-0.627,7.812,-170.41,-20.142,-1.658,-74.585
-0.362,-0.059,-1.176,-40.039,-171.631,-15.442,-1.731,-50.058
-0.031,-0.154,-1.33,10.864,-161.682,4.944,-3.091,-26.769
0.153,-0.121,-1.338,3.052,-141.968,-4.028,-4.059,-10.614
0.332,0.01,-1.153,6.836,-120.85,-7.874,-3.712,1.045
0.469,0.018,-1.137,6.348,-104.248,-6.531,-2.813,10.531
0.568,0.042,-1.1,5.005,-70.251,-3.418,-0.6,17.836
0.622,0.078,-0.975,9.827,-46.57,-2.563,1.763,24.497
0.683,0.11,-0.841,10.01,-30.762,0.122,3.035,29.969
0.707,0.1,-0.733,12.756,-19.714,0.366,4.225,35.148
0.745,0.135,-0.676,7.202,-15.442,1.282,5.702,40.289
0.733,0.092,-0.632,-14.099,-7.996,2.136,6.132,44.537
0.834,0.111,-0.518,-6.592,-5.554,0.061,6.308,49.308
0.621,0.044,-0.763,16.724,-5.005,-6.47,5.571,48.263
0.811,0.104,-0.646,5.737,-1.221,-2.258,5.08,49.261
0.853,0.16,-0.604,-25.879,17.456,12.756,5.95,50.565
0.801,0.068,-0.617,-15.015,10.559,5.798,5.298,49.273
0.766,0.096,-0.616,-2.869,-1.77,-1.77,5.997,52.047
0.747,0.089,-0.65,-5.432,-8.301,-2.625,5.856,51.474
0.751,0.098,-0.686,-10.864,-4.7,-2.625,5.011,49.775
0.821,0.045,-0.659,-9.033,6.958,-1.709,4.636,49.543
0.789,0.052,-0.669,5.92,3.54,-1.282,3.963,49.246
0.773,0.021,-0.675,-5.005,3.845,-0.671,2.985,49.289
0.756,0.013,-0.693,-6.592,-1.831,-0.183,1.815,49.313
0.75,0.048,-0.675,4.944,-1.953,-1.953,1.865,48.504
,,,,,,,
,,,,,,,
0.68,0.074,-1.037,-9.521,63.843,12.085,2.089,43.827
0.627,0.086,-1.053,-1.587,99.06,13.062,2.84,39.082
0.512,0.088,-1.084,-10.681,116.699,10.254,3.661,33.654
0.345,0.069,-1.062,-4.456,125.854,6.592,3.818,27.001
0.146,0.048,-1.047,0.977,122.07,2.075,3.665,20.956
-0.088,0.071,-0.974,11.414,115.967,0.61,3.707,12.355
-0.26,0.126,-0.901,4.578,103.638,1.16,4.503,2.043
-0.455,0.124,-0.798,-0.244,92.468,3.296,5.572,-9.969
-0.614,0.053,-0.762,-4.456,63.11,3.235,5.744,-22.29
-0.725,0.063,-0.644,-1.831,74.951,6.836,5.605,-33.3
-0.795,0.057,-0.522,-8.911,67.322,7.568,4.517,-43.36
-0.858,-0.02,-0.448,-13.306,63.843,7.446,2.303,-51.499
-0.903,0.041,-0.328,-20.447,71.838,7.019,2.127,-59.323
-0.939,-0.066,-0.239,-9.644,76.538,5.554,0.198,-66.27
-0.994,0.004,-0.079,33.386,72.021,10.071,-0.597,-73.497
-0.981,-0.058,0.013,17.456,59.937,11.536,-1.166,-80.519
-0.974,-0.141,0.106,9.094,35.767,6.531,-3.827,-85.19
-0.976,-0.108,0.128,-16.785,13.855,0.183,-4.409,-84.952
-0.975,0.011,0.15,-13.306,1.526,-3.052,-4.318,-82.767
-0.98,-0.004,0.138,-7.202,-3.967,2.869,-3.514,-81.622
-1.015,-0.058,0.136,3.906,-2.869,5.615,-2.298,-81.724
-0.993,-0.083,0.134,3.113,-2.197,0.61,-1.921,-81.773
-0.983,-0.078,0.161,1.526,-5.432,1.465,-3.175,-81.255
-0.99,-0.052,0.15,5.737,-9.277,2.197,-3.847,-80.849
-0.99,-0.031,0.161,-0.305,-16.418,0.305,-3.472,-80.625
-0.953,-0.006,0.15,-3.479,-33.752,-2.014,-2.4,-80.66
-0.901,-0.062,0.022,0.61,-68.665,-4.15,-2.234,-82.481
-0.827,-0.098,-0.118,28.931,-100.952,-11.78,-3.061,-85.466
-0.722,0.013,-0.349,19.409,-139.587,-21.423,-2.556,-84.424
-0.557,0.01,-0.724,12.39,-165.955,-21.057,-2.418,-68.619
-0.379,0.045,-0.93,27.283,-156.921,-20.203,-0.503,-49.496
-0.137,0.134,-1.15,-6.897,-163.269,-10.315,3.202,-29.585
0.126,0.088,-1.192,1.953,-141.296,-5.554,3.865,-13.285
0.346,0.014,-1.276,0.977,-113.281,-12.939,3.541,-0.539
0.454,0.085,-1.131,4.333,-85.083,-10.498,3.819,9.421
0.59,0.096,-1.003,13.733,-75.867,-9.46,3.351,18.204
0.707,0.117,-0.868,21.545,-76.66,-6.775,3.752,26.047
0.762,0.058,-0.784,19.165,-65.063,-4.7,4.477,33.46
0.784,0.171,-0.672,7.141,-35.828,-1.343,5.758,40.276
0.791,0.174,-0.648,-25.574,-18.311,3.845,6.951,45.264
0.808,0.13,-0.608,-18.799,-2.991,6.409,7.295,48.707
0.787,0.074,-0.627,8.728,0,3.479,7.669,50.508
0.812,0.137,-0.545,17.7,5.066,4.883,7.305,52.185
0.789,0.074,-0.571,-11.536,-2.869,2.197,5.967,53.246
0.844,0.096,-0.503,-11.047,14.038,18.677,5.528,54.825
0.783,0.056,-0.543,-10.62,-2.502,1.465,5.334,55.819
0.794,0.108,-0.595,-3.54,-4.944,2.319,4.894,55.128
0.832,0.172,-0.613,-2.319,-0.122,2.747,6.225,54.8
0.809,0.085,-0.61,-16.296,3.723,-1.953,6.014,53.306
0.929,0.116,-0.526,8.667,-1.099,-2.38,6.679,54.586
,,,,,,,
,,,,,,,
0.797,0.137,-0.655,-4.395,19.958,4.333,7.008,53.893
0.76,0.169,-0.785,-10.315,40.71,11.597,6.903,51.458
0.747,0.2,-0.853,-3.235,64.026,17.395,8.248,48.245
0.632,0.145,-0.96,-7.629,88.135,18.677,8.452,41.512
0.521,0.139,-1.088,-4.395,104.858,17.029,8.188,35.396
0.377,0.161,-1.096,-7.812,121.277,14.465,7.996,29.35
0.164,0.15,-1.13,-12.756,129.456,12.207,7.391,21.433
-0.076,0.128,-1.052,10.132,129.333,12.512,7.375,12.613
-0.288,0.144,-0.956,13.367,119.568,13.672,7.85,2.365
-0.45,0.086,-0.85,7.202,103.333,15.93,7.174,-9.185
-0.619,0.095,-0.719,0.122,88.44,13.306,6.713,-21.677
-0.742,0.11,-0.537,-1.343,76.66,12.085,6.688,-34.155
-0.831,0.054,-0.476,-16.357,69.153,7.935,5.339,-45.402
-0.911,0.012,-0.433,-5.859,65.247,10.864,4.102,-54.886
-0.951,0.056,-0.318,5.859,64.148,13.916,3.434,-62.629
-0.974,0.005,-0.162,22.766,59.753,21.545,1.858,-69.185
-0.965,-0.09,-0.066,8.85,50.232,15.259,-0.253,-75.559
-0.958,-0.1,0.052,2.93,38.208,8.606,-1.905,-82.448
-0.976,-0.116,0.103,12.817,18.921,8.85,-4.434,-85.438
-1.003,-0.135,0.091,1.16,-1.099,3.113,-6.44,-83.041
-1.028,-0.098,0.019,-5.371,-4.272,-0.366,-6.437,-82.517
-1.016,-0.093,0.046,-1.343,-0.305,-0.549,-6.255,-82.744
-1.013,-0.074,0.055,-1.831,-1.16,-1.526,-5.623,-83.644
-1.005,-0.087,0.033,0.61,-1.099,-0.183,-4.954,-84.597
-1.028,-0.103,0.027,4.822,-1.892,0.305,-5.031,-84.478
-1.005,-0.099,0.026,2.808,-0.183,0.122,-5.117,-84.507
-0.999,-0.078,0.042,1.221,-3.235,-0.427,-5.182,-84.504
-0.965,-0.092,0.087,-7.69,-17.639,-4.333,-5.296,-84.094
-0.906,-0.088,0.073,3.418,-56.519,-10.01,-5.236,-83.774
-0.857,-0.027,-0.028,13.428,-94.177,-18.921,-4.356,-84.892
-0.79,-0.029,-0.327,11.963,-123.413,-26.001,-3.821,-85.03
-0.607,0.032,-0.665,10.254,-149.841,-34.912,-1.937,-73.193
-0.421,0.07,-0.974,-8.118,-158.508,-24.719,0.805,-53.278
-0.205,0.025,-1.189,-2.136,-145.02,-12.024,1.513,-32.647
-0.006,0.016,-1.294,19.226,-138.062,-14.221,1.915,-16.714
0.213,0.055,-1.268,18.616,-128.052,-13.855,2.019,-5.064
0.38,0.11,-1.126,15.747,-107.91,-7.751,2.425,4.467
0.557,0.172,-0.949,3.601,-101.624,-4.761,4.237,13.806
0.743,0.133,-0.855,18.677,-97.534,-5.981,5.834,24.131
0.764,0.152,-0.801,12.207,-76.172,-5.676,7.253,32.924
0.883,0.222,-0.536,8.972,-44.128,-2.869,8.96,42.517
0.888,0.085,-0.479,8.179,-36.194,-3.601,7.977,50.149
0.891,0.067,-0.463,14.282,-19.226,1.587,7.287,55.664
0.846,0.117,-0.49,-26.733,-4.456,4.211,6.954,59.948
0.862,0.188,-0.462,32.349,-13.123,-1.282,6.566,60.793
0.945,0.174,-0.427,-29.053,9.521,11.047,7.779,61.529
0.846,0.173,-0.441,-0.916,6.165,5.798,9.392,61.074
0.895,0.14,-0.435,-10.62,3.662,-1.038,9.669,61.96
0.817,-0.042,-0.602,16.846,-7.812,-0.061,6.365,60.823
0.897,0.112,-0.442,-1.099,-7.385,-5.066,5.532,60.467
0.896,0.122,-0.457,-5.92,2.808,0.183,4.736,60.745
0.864,0.157,-0.453,-5.92,2.93,2.625,5.001,60.273
0.882,0.154,-0.427,-7.629,1.282,0.122,7.834,62.285
0.873,0.116,-0.47,-5.92,0.183,-1.099,7.91,61.768
0.875,0.108,-0.49,-5.737,-4.761,-0.183,7.718,61.262
0.881,0.112,-0.481,-1.77,0.671,0.305,7.032,61.185
0.865,0.137,-0.484,-7.263,-3.479,1.221,6.777,60.43
,,,,,,,
,,,,,,,
0.788,0.175,-0.684,-12.024,60.486,11.169,7.539,57.111
0.728,0.174,-0.854,-6.836,84.351,14.221,8.278,51.736
0.619,0.147,-0.936,-0.549,103.149,17.639,8.55,44.762
0.466,0.162,-1.014,-0.793,111.816,16.235,8.595,36.232
0.282,0.156,-1.07,-2.197,112.915,14.648,8.251,28.083
0.105,0.154,-1.073,-4.761,112.427,13.367,8.102,19.576
-0.117,0.134,-1,1.221,109.558,13.611,8.163,9.948
-0.319,0.146,-0.92,-0.793,106.812,11.047,8.259,-0.674
-0.499,0.115,-0.886,-8.545,102.234,11.536,7.877,-11.949
-0.634,0.127,-0.718,-12.268,97.534,13.184,7.699,-23.754
-0.775,0.073,-0.615,-9.094,88.318,12.207,6.831,-35.053
-0.874,0.005,-0.504,-4.822,79.407,11.475,4.693,-45.406
-0.92,-0.005,-0.377,4.761,65.613,10.803,2.938,-55.228
-0.948,0.022,-0.198,1.465,58.777,9.644,1.395,-64.251
-0.964,-0.064,-0.115,-7.507,55.115,8.545,-0.623,-72.142
-0.983,-0.071,-0.01,11.536,50.537,10.315,-1.736,-79.476
-0.967,-0.062,0.118,23.254,40.71,8.057,-2.578,-86.033
-0.98,-0.239,0.142,14.343,29.846,4.395,-6.379,-83.314
-0.957,-0.059,0.213,-18.921,16.724,-2.258,-6.276,-80.747
-0.954,-0.075,0.21,-1.648,0.977,-4.272,-6.327,-78.139
-0.954,-0.094,0.176,8.362,-12.756,-1.953,-6.794,-77.16
-0.969,-0.047,0.173,2.014,-22.949,-1.404,-4.01,-77.937
-0.933,-0.036,0.154,11.292,-40.283,-2.014,-3.703,-78.779
-0.918,-0.058,0.019,9.827,-72.449,-12.146,-3.515,-81.374
-0.904,-0.07,-0.101,6.775,-99.426,-20.02,-3.224,-85.043
-0.8,0,-0.3,24.17,-120.85,-26.306,-2.629,-85.492
-0.644,0.101,-0.505,5.554,-136.658,-36.194,-0.455,-74.813
-0.48,0.156,-0.696,-7.202,-140.015,-30.273,3.295,-60.313
-0.282,0.266,-0.827,1.038,-135.803,-24.048,9.267,-42.764
0.014,0.295,-0.909,-10.376,-138.123,-27.1,14.129,-24.544
0.262,0.259,-0.996,6.287,-148.132,-27.954,15.751,-7.768
0.551,0.226,-1.06,4.333,-134.094,-24.658,15.275,7.885
0.638,0.182,-0.989,23.315,-108.826,-19.287,12.853,19.799
0.73,0.226,-0.848,15.991,-91.064,-14.893,11.326,28.636
0.793,0.166,-0.759,15.869,-66.04,-12.207,9.972,35.931
0.731,0.168,-0.837,0.183,-39.551,-4.517,9.393,39.471
0.811,0.127,-0.6,1.587,-13.55,3.662,9.037,44.485
0.888,0.202,-0.527,-1.099,-4.333,14.221,8.928,48.984
0.852,0.236,-0.391,-11.475,-5.798,-1.953,10.28,53.06
0.901,0.077,-0.41,-0.183,-23.621,2.991,9.214,59.505
0.877,0.086,-0.405,-7.935,-12.39,-6.653,8.713,62.446
0.737,0.136,-0.461,-1.587,-3.906,-5.493,8.099,62.521
0.918,0.1,-0.43,1.648,9.705,9.155,5.941,62.962
0.907,0.122,-0.491,3.296,-3.235,-2.625,6.538,61.836
0.906,0.091,-0.415,5.371,4.089,4.333,6.562,61.89
0.89,0.097,-0.438,-7.385,-4.395,-0.549,5.809,63.297
0.87,0.078,-0.422,6.47,7.568,5.249,5.564,63.148
0.909,0.107,-0.367,2.014,-1.404,2.075,5.415,64.77
,,,,,,,
,,,,,,,
0.872,0.088,-0.501,-5.737,3.418,1.831,5.352,63.472
0.849,0.104,-0.544,-2.625,18.982,3.174,5.436,61.847
0.838,0.164,-0.617,-11.23,42.175,6.836,6.56,59.023
0.817,0.158,-0.708,-13.611,58.289,13.855,7.089,54.297
0.772,0.18,-0.807,-13.245,76.294,18.372,8.141,50.045
0.683,0.172,-0.925,-1.526,96.436,15.747,8.775,44.802
0.563,0.176,-0.99,-8.789,113.098,15.808,8.754,39.016
0.361,0.192,-1.056,-2.686,120.728,14.038,9.155,31.735
0.181,0.179,-1.048,0.305,122.437,14.038,9.275,23.652
-0.026,0.11,-0.984,-0.854,121.338,11.902,8.851,14.646
-0.303,0.094,-0.958,1.038,115.662,15.991,8.069,2.992
-0.508,0.093,-0.844,3.418,110.474,13.977,6.964,-9.621
-0.632,0.022,-0.673,-12.329,104.431,9.277,4.847,-22.905
-0.765,0.061,-0.584,-20.996,91.003,-1.77,4.092,-35.705
-0.855,0.049,-0.4,-1.587,77.82,5.188,3.453,-47.695
-0.921,0.078,-0.271,-2.93,63.11,2.869,3.242,-58.569
-0.954,0.083,-0.206,-1.526,54.321,3.662,4.094,-66.966
-0.986,0.073,-0.129,11.536,49.866,7.446,4.21,-74.292
-0.994,-0.011,-0.056,-1.465,48.706,9.583,3.272,-79.735
-0.994,-0.037,0.08,12.939,44.556,8.606,1.58,-85.215
-0.979,-0.093,0.16,10.559,25.879,8.179,-0.977,-88.73
-0.977,-0.009,0.155,0.061,5.798,-1.77,-2.169,-84.625
-0.972,0.002,0.155,-3.54,2.319,-0.61,-1.986,-81.774
-0.993,-0.046,0.134,-1.038,0.732,3.235,-2.116,-80.997
-1.007,-0.075,0.106,-8.118,4.761,3.174,-1.85,-81.872
-0.959,-0.013,0.142,0.854,0.916,1.77,-1.917,-82.001
-0.918,0.002,0.244,-3.54,-25.696,-4.639,-1.926,-80.643
-0.911,-0.019,0.125,7.69,-78.308,-4.028,-1.57,-80.65
-0.919,0.012,-0.061,8.728,-104.492,-11.047,-0.27,-83.093
-0.833,0.01,-0.298,22.217,-122.314,-20.935,0.084,-89.84
-0.696,0.103,-0.562,17.578,-136.536,-23.315,1.754,-76.524
-0.508,0.107,-0.878,3.967,-138.794,-13.184,3.836,-58.449
-0.275,0.026,-1.093,8.423,-129.333,-14.282,3.844,-39.13
-0.093,0.045,-1.161,11.169,-132.935,-22.034,4.007,-22.999
0.206,0.111,-1.124,18.616,-149.353,-27.588,3.845,-8.94
0.498,0.148,-1.127,-14.648,-136.169,-28.137,4.18,4.242
0.579,0.24,-1.049,9.338,-101.318,-19.348,6.724,14.819
0.664,0.161,-0.946,9.277,-69.885,-12.878,8.047,24.37
0.73,0.147,-0.8,16.602,-47.791,-9.277,8.539,31.814
0.809,0.104,-0.683,-1.526,-37.659,-5.981,8.336,38.18
0.85,0.174,-0.607,5.371,-39.734,-4.272,7.756,44.643
0.86,0.15,-0.537,17.517,-42.358,-1.587,7.838,50.396
0.832,0.221,-0.492,7.812,-33.142,-1.038,9.059,54.304
0.901,0.223,-0.455,-2.808,-18.738,-0.366,10.805,57.092
0.853,0.238,-0.475,-15.686,-12.939,-2.197,11.86,58.302
0.956,0.17,-0.456,11.169,3.113,16.541,11.995,59.789
0.945,0.204,-0.375,-11.353,-3.174,0.183,11.623,61.925
0.9,0.143,-0.371,-15.991,1.465,3.296,10.622,63.283
0.934,0.101,-0.413,-12.39,1.038,11.23,8.621,65.146
0.953,0.122,-0.41,-2.258,1.404,2.747,8.008,65.884
1.041,0.11,-0.215,22.095,9.521,-4.15,6.651,68.761
1.111,0.457,-0.221,-20.996,-1.099,-11.475,10.579,69.787
0.922,0.091,-0.362,7.08,-2.563,-1.709,10.519,70.341
0.97,0.082,-0.301,-18.921,28.259,8.972,10.018,71.86
1.058,0.104,-0.32,0.305,8.301,3.113,9.836,70.851