aX,aY,aZ,gX,gY,gZ,Roll,Pitch

0.006,0.860,0.430,-23.376,-5.432,-2.197,63.456,0.342
0.028,0.927,0.421,-17.822,-6.653,-0.732,64.529,0.989
0.054,0.831,0.528,21.240,-26.489,-10.864,62.179,1.701
0.022,0.791,0.480,-12.817,-41.870,-23.987,61.358,1.628
0.022,0.908,0.417,-19.043,-49.622,-22.949,61.838,1.850
0.039,0.805,0.374,22.522,-55.847,-28.015,61.591,2.066
0.020,0.902,0.391,2.380,-55.481,-30.029,63.950,1.550
0.029,0.888,0.406,-3.845,-54.260,-30.090,65.567,1.627
0.030,0.920,0.423,-19.287,-51.392,-23.804,65.555,1.745
0.038,0.819,0.397,3.540,-56.335,-29.724,65.328,1.727
0.046,0.923,0.397,-14.160,-57.678,-22.095,65.352,2.101
0.045,0.858,0.323,-0.793,-57.251,-32.471,66.270,2.367
0.051,0.853,0.353,8.850,-59.814,-25.696,66.796,2.736
0.089,1.116,0.340,-22.705,-57.678,-24.780,69.111,3.293
0.048,0.899,0.285,-12.512,-56.152,-24.597,70.473,3.379
0.039,0.925,0.235,-18.127,-54.443,-17.090,71.964,3.268
0.037,0.914,0.171,-15.076,-51.453,-15.259,74.715,3.067
0.014,0.955,0.228,-9.766,-45.044,-12.573,75.873,2.087
0.009,0.974,0.168,-20.813,-35.645,-7.874,77.902,1.485
-0.019,0.971,0.082,-14.038,-21.667,-3.601,80.332,0.611
-0.006,0.969,0.129,-4.089,-12.146,-2.563,81.090,-0.029
-0.021,0.998,0.104,1.099,-0.793,0.610,82.949,-0.541
-0.005,0.957,0.186,22.644,2.136,-1.160,82.636,-0.748
-0.002,0.941,0.219,12.817,1.343,-0.732,80.621,-0.495
-0.004,0.934,0.226,3.601,-0.183,-0.061,79.127,-0.464
-0.002,0.946,0.218,-0.610,-0.366,-0.977,77.329,-0.181
-0.000,0.950,0.217,2.686,0.183,-0.549,76.865,-0.117
0.000,0.950,0.215,2.563,0.122,-0.610,76.954,-0.083
-0.002,0.954,0.216,7.324,0.916,0.488,77.173,-0.059
0.001,0.938,0.193,13.306,10.132,3.235,77.498,-0.020
-0.002,0.946,0.236,3.723,23.804,7.874,77.212,-0.036
-0.026,0.972,0.166,4.822,29.297,10.315,77.979,-0.427
0.005,0.955,0.217,28.015,33.875,11.414,77.970,-0.323
0.014,0.937,0.303,37.415,44.800,16.418,76.405,-0.130
0.018,0.948,0.307,21.362,52.979,22.766,75.401,0.158
0.031,0.844,0.295,22.400,61.890,31.799,73.037,1.015
0.029,0.858,0.314,18.799,70.313,39.307,71.177,1.397
0.043,0.847,0.381,6.775,76.111,44.678,69.562,1.866
0.068,0.813,0.405,8.972,76.111,46.082,67.302,2.703
0.056,0.882,0.412,5.798,74.524,44.312,65.840,3.028
0.049,0.922,0.403,0.000,75.073,41.504,64.997,3.259
0.029,0.914,0.458,-2.686,74.097,39.673,64.432,2.973
0.000,0.809,0.464,-9.644,63.538,38.940,63.729,1.966
0.010,0.824,0.466,1.709,57.495,30.823,62.679,1.297
0.077,0.859,0.574,15.503,44.189,22.888,60.018,1.697
0.022,0.793,0.514,-11.230,28.259,17.395,58.403,1.622
-0.011,0.838,0.532,25.085,11.292,1.648,57.785,1.427
-0.033,0.839,0.444,-15.991,-0.610,-1.526,58.192,0.796
-0.024,0.872,0.454,-28.015,-4.944,-7.812,59.817,-0.698
-0.010,0.895,0.429,9.399,-4.517,-4.822,61.631,-1.158
-0.022,0.839,0.399,-14.832,-4.150,-1.892,63.361,-1.338
0.005,0.912,0.379,-9.888,-2.502,-0.366,64.723,-0.766
-0.007,0.887,0.373,-10.254,-3.174,-1.465,65.894,-0.511
-0.022,0.870,0.365,-11.597,-7.019,-1.099,66.605,-0.699


0.014,0.878,0.447,-4.700,-3.418,-1.648,66.197,-0.152
0.023,0.884,0.463,-5.310,-7.019,-3.540,64.899,0.126
0.045,0.838,0.535,-7.141,-20.996,-9.949,62.438,0.881
0.031,0.744,0.482,1.465,-43.091,-25.513,60.007,1.679
0.058,0.910,0.444,-9.338,-56.824,-28.137,60.239,2.312
0.010,0.838,0.342,11.902,-62.927,-33.630,61.487,2.171
0.005,0.980,0.324,-12.878,-61.523,-34.424,65.318,1.554
0.031,0.848,0.368,6.775,-57.617,-29.419,67.490,1.532
0.036,0.900,0.425,-3.723,-54.810,-26.306,67.714,1.212
0.047,0.927,0.362,-6.531,-54.321,-28.015,67.904,1.715
0.041,0.920,0.332,-6.958,-54.077,-26.489,67.423,2.267
0.036,0.884,0.377,-6.165,-51.880,-23.437,67.495,2.332
0.034,0.879,0.362,-7.568,-53.101,-23.315,68.227,2.327
0.037,0.891,0.323,-13.550,-54.688,-22.705,68.586,2.221
0.025,0.937,0.281,-7.751,-52.979,-20.813,69.404,1.987
0.032,0.925,0.246,-18.738,-49.072,-17.639,71.446,1.922
0.015,0.901,0.265,0.000,-46.509,-16.113,72.952,1.643
0.017,0.932,0.196,-28.625,-44.067,-11.353,74.961,1.342
-0.004,0.960,0.171,-22.644,-40.955,-8.972,76.674,0.902
-0.020,0.980,0.115,-11.841,-27.039,-4.822,78.792,0.125
-0.046,0.988,0.034,-4.456,-8.911,-1.953,82.346,-0.770
-0.013,0.973,0.173,29.419,2.136,-1.282,82.696,-1.211
-0.004,0.929,0.237,24.292,3.540,-1.404,81.695,-1.213
-0.002,0.922,0.257,9.094,0.549,-0.549,79.536,-0.960
-0.007,0.935,0.249,1.892,-0.244,-0.244,76.298,-0.383
-0.007,0.947,0.244,2.136,0.061,-0.305,75.190,-0.293
-0.008,0.937,0.252,8.484,0.916,-0.305,75.002,-0.354
-0.012,0.947,0.250,10.803,3.723,0.610,75.193,-0.494
0.003,0.927,0.273,8.667,15.442,4.517,74.826,-0.349
0.003,0.956,0.257,19.043,30.579,8.789,74.674,-0.197
-0.006,0.923,0.228,13.306,42.358,15.503,74.966,-0.164
-0.040,0.967,0.214,9.033,50.842,21.057,75.542,-0.585
0.010,0.928,0.230,15.198,61.401,28.870,76.156,-0.491
0.036,0.890,0.296,35.034,71.838,36.865,75.358,-0.011
0.064,0.929,0.352,19.226,78.186,43.335,73.573,1.022
0.074,0.906,0.432,13.672,83.923,46.143,70.089,2.714
0.078,0.862,0.474,-5.005,84.534,48.157,66.297,3.693
0.057,0.790,0.456,7.324,77.454,44.434,63.532,4.029
0.033,0.797,0.450,2.441,68.298,39.490,61.404,3.636
0.033,0.833,0.464,6.714,57.983,33.630,60.511,3.058
0.027,0.791,0.470,9.216,47.546,28.748,60.101,2.331
0.017,0.760,0.465,8.423,40.039,25.452,59.794,1.722
0.035,0.823,0.505,14.465,32.532,20.386,59.263,1.738
0.029,0.843,0.486,1.038,26.550,16.418,59.062,1.661
0.026,0.757,0.545,18.066,12.207,7.568,57.806,1.640
0.128,0.323,0.396,-13.184,2.991,-4.700,54.681,3.733
-0.008,0.828,0.393,-7.324,0.549,-2.502,56.372,3.043
-0.016,0.896,0.417,-7.080,-2.136,-3.540,57.933,2.266
0.001,0.911,0.407,-8.728,-3.479,-3.906,61.335,1.799
-0.014,0.910,0.402,-10.620,-5.615,-1.221,65.452,-0.531
0.007,0.900,0.392,-5.249,1.465,-1.587,65.908,-0.307
-0.013,0.894,0.368,-3.296,-0.366,-2.075,66.543,-0.270


0.059,0.779,0.425,8.301,-9.644,-2.625,65.500,0.590
0.006,0.868,0.424,-13.916,-16.235,-8.606,64.920,0.887
0.036,0.846,0.463,7.019,-28.320,-13.611,63.575,1.341
0.069,0.825,0.514,7.874,-44.250,-21.606,61.053,2.578
0.038,0.837,0.462,-0.061,-60.913,-30.701,61.029,2.222
0.016,0.832,0.329,1.404,-73.914,-38.086,62.006,2.426
0.062,0.850,0.382,-3.662,-77.881,-37.354,63.091,2.847
0.064,0.904,0.381,-6.958,-75.867,-34.607,65.435,2.761
0.056,0.908,0.317,-5.066,-78.430,-36.011,67.838,3.020
0.044,0.901,0.314,-3.845,-73.059,-32.959,68.373,3.382
0.039,0.924,0.331,-8.545,-62.683,-26.611,69.507,2.989
0.038,0.909,0.250,-0.854,-56.946,-23.743,71.412,2.633
-0.024,1.000,0.296,-12.085,-49.011,-19.836,72.244,1.411
0.012,0.923,0.236,-9.216,-43.335,-16.113,73.463,0.953
0.004,0.915,0.234,-4.456,-36.987,-12.756,74.831,0.445
0.001,0.948,0.245,-11.597,-30.945,-9.521,75.053,-0.105
0.005,0.947,0.190,-11.780,-28.442,-7.263,76.384,0.320
-0.002,0.955,0.180,-6.348,-19.043,-3.906,77.307,0.105
-0.024,0.963,0.160,-3.357,-8.057,-2.075,78.516,-0.297
-0.014,0.979,0.192,6.958,0.305,-0.549,79.361,-0.513
-0.003,0.929,0.242,18.005,1.587,-0.732,78.549,-0.631
-0.003,0.926,0.257,5.188,0.427,-0.549,77.356,-0.640
-0.004,0.951,0.239,-0.061,-0.183,-0.305,76.197,-0.357
-0.004,0.942,0.244,3.723,0.488,-0.427,75.310,-0.213
-0.005,0.937,0.251,5.371,0.549,-0.488,75.217,-0.230
0.002,0.945,0.250,8.179,2.686,0.610,75.380,-0.160
-0.001,0.945,0.253,16.418,8.911,2.625,75.163,-0.113
0.004,0.916,0.212,10.132,16.296,6.165,75.525,0.004
0.023,0.944,0.233,12.512,33.081,11.353,75.798,0.412
-0.019,0.971,0.203,20.569,43.274,16.602,76.586,0.104
-0.025,0.958,0.219,13.489,50.659,22.156,77.111,-0.252
0.045,0.906,0.335,33.020,63.110,31.311,75.327,0.349
0.044,0.937,0.372,18.127,71.655,38.147,73.333,0.652
0.050,0.926,0.380,14.343,79.773,44.800,70.622,1.650
0.068,0.893,0.397,7.874,86.975,50.598,67.743,2.997
0.077,0.846,0.463,-2.747,87.402,51.147,65.650,3.467
0.091,0.781,0.498,-0.916,78.308,46.204,62.921,4.244
0.066,0.824,0.482,3.479,64.880,37.964,60.848,4.518
0.027,0.825,0.487,-3.418,55.908,32.043,59.265,3.932
0.058,0.814,0.475,-7.446,52.795,30.884,58.888,3.676
0.048,0.844,0.492,1.282,46.448,25.452,59.512,2.981
0.070,0.852,0.448,2.319,36.499,21.729,60.158,3.044
0.034,0.859,0.562,17.822,24.048,12.512,59.447,3.094
-0.003,0.785,0.498,-9.399,3.540,0.000,59.017,2.209
-0.026,0.898,0.397,-32.959,-1.099,-2.441,60.683,1.114
0.039,0.887,0.352,-7.812,2.808,-1.892,62.184,0.653
0.023,0.875,0.378,-2.441,4.944,3.723,64.748,0.487
-0.017,0.860,0.339,0.000,-1.221,-1.770,67.391,0.266
-0.015,0.914,0.359,2.319,-3.418,-3.723,68.002,0.438
-0.005,0.888,0.365,-1.099,-2.563,-1.221,67.828,-0.211
0.016,0.860,0.321,1.160,-1.709,-2.136,68.535,-0.307
-0.017,0.891,0.345,-5.371,-2.747,-1.404,68.619,-0.301


0.007,0.920,0.389,3.113,-6.653,-3.235,68.237,0.029
0.007,0.892,0.412,-7.385,-15.137,-6.165,67.604,0.207
0.032,0.814,0.401,7.996,-29.602,-14.038,66.249,0.442
0.047,0.855,0.443,3.906,-50.110,-23.254,64.659,1.395
0.051,0.875,0.413,-3.113,-63.171,-28.503,64.011,2.057
0.054,0.881,0.392,2.930,-74.829,-33.691,64.154,2.775
0.049,0.898,0.326,5.310,-80.872,-36.987,65.664,2.989
0.058,0.937,0.348,-10.620,-81.543,-36.133,67.407,3.124
0.061,0.896,0.313,-0.305,-77.209,-33.508,68.851,3.291
0.039,0.913,0.315,-4.272,-67.749,-28.809,70.107,3.057
0.036,0.920,0.275,0.000,-64.209,-28.015,70.948,2.872
0.022,0.939,0.302,-7.324,-60.425,-24.170,71.672,2.344
0.042,0.927,0.267,-9.827,-54.932,-20.813,72.493,2.058
0.026,0.928,0.236,-1.465,-49.927,-18.433,73.690,1.871
0.007,0.958,0.213,-15.076,-40.894,-12.817,74.760,1.436
-0.005,0.966,0.230,-5.981,-33.813,-11.292,75.913,1.040
0.003,0.948,0.214,-8.789,-26.367,-7.324,76.775,0.459
-0.032,0.975,0.182,-3.540,-15.381,-4.028,77.697,-0.384
-0.011,0.992,0.188,-1.343,-1.831,-0.244,78.144,-0.642
-0.003,0.943,0.246,17.761,1.587,-0.549,77.850,-0.619
-0.001,0.912,0.275,4.333,0.427,-0.488,76.865,-0.676
-0.005,0.968,0.256,-0.305,-0.122,-0.427,75.798,-0.279
-0.002,0.932,0.261,2.075,0.183,-0.305,74.537,-0.158
0.001,0.935,0.262,2.075,0.000,-0.488,74.278,-0.104
-0.003,0.937,0.259,1.526,-0.183,-0.183,74.599,-0.136
-0.003,0.935,0.260,0.793,-0.183,-0.061,74.423,-0.112
-0.002,0.934,0.261,2.136,0.183,-0.244,74.438,-0.113
-0.002,0.945,0.259,7.141,0.916,-0.122,74.522,-0.156
-0.006,0.946,0.264,11.230,3.235,1.038,74.489,-0.201
0.000,0.917,0.246,10.437,9.460,3.906,74.611,-0.159
0.005,0.938,0.226,8.240,14.587,4.700,75.121,-0.054
-0.002,0.981,0.216,9.460,33.203,12.146,75.869,-0.052
-0.015,0.960,0.238,20.935,44.189,17.395,76.290,-0.175
-0.001,0.965,0.304,22.827,55.664,24.048,75.650,-0.189
0.026,0.891,0.323,15.808,68.481,33.936,74.120,0.126
0.032,0.889,0.337,10.681,79.224,41.199,72.032,0.632
0.045,0.876,0.350,11.780,84.290,44.128,70.007,1.523
0.059,0.842,0.361,10.681,78.186,43.457,68.462,2.476
0.044,0.850,0.442,8.789,70.923,39.185,66.529,2.744
0.053,0.863,0.476,-0.122,62.866,33.997,64.421,3.032
0.029,0.874,0.461,-6.165,57.007,30.212,62.962,2.761
0.006,0.856,0.369,-3.174,53.284,26.489,63.021,1.959
0.002,0.895,0.359,2.869,52.307,27.466,64.458,1.326
0.050,0.847,0.408,3.784,49.866,26.611,65.281,1.294
0.057,0.880,0.557,19.470,37.476,17.090,64.011,1.697
0.079,0.689,0.572,34.241,9.033,4.089,60.092,2.828
0.012,0.819,0.470,-25.024,-2.991,-1.038,58.063,2.990
0.016,0.933,0.344,-10.986,2.136,2.869,59.579,2.449
-0.021,0.937,0.379,3.723,2.197,-0.061,62.370,1.301
0.020,0.907,0.410,-12.268,-0.427,-0.916,65.959,0.396
-0.027,0.942,0.386,-11.475,-2.747,-4.639,67.779,-0.178
-0.004,0.892,0.356,-2.930,-0.366,-2.441,67.392,-0.460
-0.006,0.887,0.348,-3.296,-2.563,-2.502,67.532,-0.255
0.004,0.892,0.335,-4.761,-0.244,-2.258,68.462,-0.490
0.001,0.910,0.331,-10.559,-3.235,-3.113,69.050,-0.064


0.001,0.883,0.381,3.174,-1.343,-1.160,68.661,0.005
-0.011,0.898,0.369,2.441,-2.319,-1.343,68.430,-0.067
0.004,0.810,0.375,-2.380,-6.348,-2.380,67.412,-0.081
0.077,0.832,0.453,-5.127,-19.958,-7.996,65.221,1.063
0.056,0.839,0.466,-5.127,-41.687,-18.372,63.725,1.902
0.029,0.842,0.428,6.897,-64.148,-29.114,62.500,2.522
0.064,0.878,0.414,4.211,-73.120,-32.227,62.368,3.382
0.063,0.879,0.346,-3.235,-80.627,-34.912,64.132,3.179
0.048,0.921,0.288,4.883,-85.999,-40.405,67.051,3.066
0.048,0.953,0.271,-7.080,-76.538,-31.494,69.766,3.317
0.034,0.929,0.231,-2.625,-70.068,-30.640,72.605,2.880
0.041,0.914,0.301,4.456,-68.542,-29.602,73.435,2.539
0.042,0.949,0.332,-11.475,-59.143,-23.682,72.960,2.426
0.040,0.952,0.244,-5.005,-55.115,-22.034,73.352,2.311
0.038,0.927,0.214,-5.981,-46.204,-17.456,73.579,2.372
0.008,0.915,0.268,-2.502,-39.917,-15.259,74.110,1.894
0.019,0.927,0.278,-12.207,-35.217,-11.719,74.821,1.560
0.003,0.906,0.223,-2.808,-31.311,-10.010,74.987,1.024
-0.018,0.960,0.165,-5.249,-22.278,-6.348,75.855,0.179
-0.019,0.974,0.171,-5.554,-8.240,-1.953,77.458,-0.223
-0.008,0.966,0.224,10.315,0.793,-0.854,78.352,-0.610
-0.000,0.907,0.279,12.451,1.587,-0.488,77.547,-0.655
-0.005,0.928,0.266,-1.160,-0.305,-0.061,75.999,-0.462
-0.008,0.946,0.260,4.578,0.000,-0.244,74.632,-0.299
-0.006,0.932,0.266,0.793,0.183,-0.305,73.901,-0.273
-0.004,0.937,0.263,3.113,0.061,-0.366,74.248,-0.331
-0.006,0.930,0.269,4.333,0.427,-0.427,74.223,-0.349
-0.004,0.933,0.270,7.202,0.854,0.183,74.034,-0.296
-0.001,0.952,0.280,13.489,3.906,1.709,73.920,-0.227
0.020,0.941,0.225,7.935,15.076,4.578,74.475,0.126
0.013,0.940,0.227,-1.587,36.316,13.611,75.099,0.406
-0.035,0.962,0.209,16.907,50.537,19.592,76.072,-0.052
-0.013,1.004,0.251,15.442,64.087,26.428,76.649,-0.221
0.047,0.909,0.333,24.048,74.524,35.583,75.021,0.167
0.043,0.832,0.359,16.541,77.026,41.565,72.716,0.602
0.049,0.832,0.413,20.691,77.942,44.312,69.155,1.872
0.053,0.862,0.439,17.944,71.960,40.955,65.637,2.909
0.049,0.862,0.448,1.221,62.927,37.537,63.750,2.941
0.032,0.817,0.447,7.812,52.002,31.555,62.481,2.761
0.028,0.907,0.472,-4.395,46.692,25.879,62.255,2.383
0.021,0.893,0.444,-1.038,45.898,23.926,62.441,1.886
0.008,0.879,0.438,-12.085,45.959,23.743,62.729,1.277
0.011,0.824,0.461,4.700,42.419,22.827,62.611,0.964
0.036,0.922,0.406,-1.953,41.260,23.865,63.547,1.088
0.027,0.876,0.473,0.549,42.053,21.423,63.046,1.181
0.046,0.770,0.644,29.419,19.470,10.193,59.621,1.746
-0.007,0.796,0.489,-15.198,0.610,0.427,59.078,1.485
0.065,1.081,0.508,-37.476,-3.540,-8.179,58.985,1.818
0.001,0.837,0.383,-3.784,5.798,-1.526,59.821,1.484
-0.018,0.837,0.338,5.676,-3.540,-0.671,64.178,0.578
-0.025,0.906,0.354,-7.568,-5.127,-4.578,66.616,0.317


0.013,0.876,0.406,-5.005,-2.014,-1.465,66.798,-0.456
0.009,0.918,0.423,-6.836,-4.028,-2.258,66.717,-0.331
0.057,0.825,0.538,-2.136,-17.578,-6.653,63.962,0.776
0.058,0.818,0.489,-2.563,-44.006,-20.752,61.559,1.994
0.052,0.866,0.467,3.296,-67.383,-31.738,60.675,2.550
0.079,0.856,0.444,5.859,-84.778,-39.246,59.865,3.611
0.061,0.823,0.332,0.732,-93.018,-47.058,62.506,3.762
0.061,0.873,0.354,-6.042,-93.201,-45.227,64.682,3.826
0.086,0.971,0.407,-9.399,-80.078,-35.461,66.060,4.270
0.050,0.862,0.238,-14.954,-71.106,-35.156,68.981,3.921
0.047,0.881,0.346,9.888,-61.707,-26.611,69.139,3.647
0.030,0.905,0.341,-3.113,-54.443,-22.156,69.559,3.166
0.033,0.954,0.259,-12.817,-52.002,-20.813,71.656,2.417
0.022,0.903,0.274,-3.845,-46.753,-18.311,71.386,1.965
0.008,0.923,0.297,-4.089,-41.382,-15.076,72.316,1.378
-0.002,0.941,0.256,-9.216,-35.767,-11.780,73.694,0.889
-0.001,0.967,0.177,-11.292,-26.978,-8.118,74.928,0.392
-0.021,0.981,0.175,-5.432,-14.221,-3.784,76.626,-0.241
-0.010,0.988,0.209,-0.854,-0.732,0.244,78.082,-0.493
-0.001,0.924,0.265,23.315,2.380,-0.244,77.906,-0.469
-0.002,0.896,0.297,2.258,0.122,-0.183,75.967,-0.491
-0.004,0.937,0.267,1.526,0.000,-0.366,74.498,-0.243
-0.003,0.922,0.283,4.211,0.366,-0.427,73.165,-0.140
-0.005,0.934,0.276,1.221,0.305,-0.183,73.061,-0.200
-0.004,0.920,0.280,3.174,0.366,-0.122,73.401,-0.224
-0.002,0.927,0.279,1.648,0.061,-0.305,73.199,-0.197
-0.003,0.938,0.276,5.859,0.366,-0.183,73.376,-0.198
-0.008,0.953,0.278,10.437,2.869,0.549,73.417,-0.248
-0.039,0.921,0.314,0.732,20.508,7.080,72.941,-0.767
-0.009,0.965,0.201,7.996,29.358,10.864,74.175,-0.870
-0.039,0.984,0.187,10.376,45.898,17.944,75.555,-1.384
0.005,0.947,0.254,25.085,61.707,26.489,75.891,-1.203
0.032,0.911,0.314,35.156,70.923,34.119,75.903,-0.166
0.047,0.891,0.345,22.217,75.867,40.527,73.575,0.656
0.068,0.855,0.386,11.780,78.308,45.044,70.058,2.261
0.070,0.833,0.441,16.052,79.041,47.485,66.720,3.265
0.056,0.835,0.476,0.061,75.928,45.593,63.994,3.620
0.036,0.763,0.463,8.728,67.688,41.992,61.540,3.522
0.031,0.923,0.475,8.606,57.007,35.461,60.919,2.880
0.011,0.908,0.464,-6.165,51.392,28.442,61.230,1.969
0.011,0.872,0.417,-6.531,46.265,27.222,62.278,1.318
0.003,0.860,0.506,4.944,40.100,23.071,62.399,0.804
0.025,0.770,0.483,3.479,32.959,20.203,61.263,0.732
0.031,0.772,0.535,15.808,24.109,15.686,59.321,1.040
0.034,0.787,0.565,28.076,9.949,5.798,56.749,1.380
-0.002,0.726,0.555,-21.362,-1.770,-5.493,54.986,1.341
0.035,0.863,0.488,-11.414,-0.488,-0.183,55.712,1.471
-0.020,0.847,0.433,-13.733,-0.183,-4.578,57.638,0.708
0.003,0.852,0.409,-10.132,-2.991,-5.310,60.158,0.238
0.009,0.853,0.413,-8.606,0.000,-1.465,62.953,0.401


0.009,0.850,0.453,-4.089,0.061,-0.427,63.338,0.007
-0.014,0.814,0.450,-8.179,-4.517,-3.052,62.888,0.100
0.034,0.863,0.490,-8.667,-10.315,-3.967,61.887,0.573
0.061,0.801,0.531,4.395,-27.893,-13.611,59.937,1.350
0.037,0.844,0.529,-6.165,-47.913,-26.123,58.898,1.756
0.052,0.862,0.458,0.916,-65.613,-33.813,59.095,2.702
0.060,0.901,0.392,-3.967,-76.843,-39.124,60.568,3.090
0.063,0.940,0.417,-10.010,-82.458,-40.771,62.970,3.061
0.040,0.845,0.345,-7.629,-81.421,-42.114,65.369,3.169
0.047,0.858,0.379,2.197,-73.792,-33.936,66.414,3.112
0.049,0.957,0.375,-3.540,-64.331,-29.236,66.987,2.912
0.035,1.028,0.276,-20.386,-60.242,-29.602,69.406,2.477
0.021,0.891,0.291,2.441,-53.406,-23.437,70.393,2.180
0.016,0.920,0.312,-3.845,-48.218,-20.691,71.628,1.717
0.018,0.926,0.292,-8.728,-45.105,-18.250,72.664,1.291
0.013,0.946,0.309,-6.409,-41.809,-16.235,71.862,1.000
-0.004,0.939,0.242,-7.507,-37.537,-13.977,72.772,0.638
-0.017,0.926,0.253,-8.972,-32.715,-11.169,73.646,0.162
-0.024,0.959,0.167,-4.456,-21.973,-6.531,75.549,-0.449
-0.032,0.970,0.146,-6.897,-6.409,-1.648,77.936,-1.116
-0.008,0.946,0.251,12.268,1.709,-0.305,77.833,-1.177
-0.003,0.911,0.290,7.874,1.038,-0.427,77.270,-0.973
-0.004,0.931,0.275,-2.014,-0.244,-0.427,75.639,-0.687
-0.004,0.931,0.279,3.601,0.183,-0.427,73.597,-0.281
-0.004,0.928,0.281,0.732,-0.183,-0.244,73.092,-0.231
-0.006,0.929,0.282,2.380,-0.061,-0.183,73.283,-0.272
-0.006,0.926,0.281,1.709,0.183,-0.366,73.178,-0.296
-0.006,0.920,0.289,5.371,0.305,-0.122,72.983,-0.321
-0.007,0.936,0.283,3.479,0.488,-0.366,72.990,-0.359
-0.004,0.938,0.284,9.949,2.686,0.488,73.000,-0.325
-0.002,0.904,0.311,5.310,3.845,2.258,72.489,-0.265
0.011,0.911,0.241,-2.930,10.620,5.005,73.136,-0.020
-0.031,0.990,0.136,7.996,29.175,10.742,75.444,-0.374
-0.066,1.008,0.159,10.559,53.467,22.156,77.417,-1.291
0.014,0.937,0.276,20.874,74.097,33.691,78.033,-1.055
0.046,0.908,0.336,19.104,81.970,39.368,76.706,-0.540
0.076,0.895,0.360,14.587,83.557,41.565,73.180,1.016
0.080,0.913,0.406,5.310,84.229,44.800,69.093,3.166
0.077,0.843,0.464,-3.479,82.703,46.021,65.909,4.102
0.042,0.753,0.429,-5.249,74.158,39.551,63.699,4.149
0.028,0.850,0.433,8.850,69.397,35.645,62.514,3.440
0.027,0.848,0.422,2.991,61.646,32.959,61.933,2.679
0.022,0.921,0.519,-1.892,60.364,30.457,61.816,1.794
0.022,0.768,0.476,15.808,48.523,27.649,61.333,1.479
0.010,0.823,0.551,3.662,38.086,20.630,59.635,1.203
0.012,0.836,0.611,25.635,22.888,9.583,57.203,0.948
-0.009,0.830,0.487,-1.282,3.723,0.305,56.883,0.518
-0.027,0.865,0.437,-16.541,0.977,-1.099,58.120,-0.191
-0.043,0.984,0.548,-16.968,0.610,-0.610,59.324,-0.938
-0.016,0.801,0.427,5.859,-3.235,-0.488,61.334,-1.362
-0.012,0.901,0.472,-13.916,0.122,-1.770,62.007,-1.393
-0.048,0.877,0.423,2.075,-0.916,0.366,62.253,-1.694
-0.015,0.828,0.393,-2.625,-0.305,-1.587,63.254,-1.360
-0.022,0.866,0.397,-10.559,0.000,-1.587,64.079,-1.442
-0.012,0.905,0.398,-10.559,-1.099,-2.197,65.093,-1.453


-0.002,0.894,0.428,1.160,-0.793,-0.488,65.164,-0.763
0.001,0.830,0.403,-4.761,-3.052,-2.014,65.038,-0.522
0.054,0.919,0.513,-6.409,-10.315,-4.517,63.837,0.600
0.056,0.824,0.501,0.854,-26.123,-12.878,61.931,1.598
0.047,0.837,0.486,-0.305,-49.744,-25.452,60.733,2.334
0.068,0.830,0.486,1.404,-67.688,-33.875,59.612,3.268
0.061,0.871,0.418,-4.272,-79.163,-39.551,60.455,3.448
0.071,0.873,0.429,1.526,-87.524,-43.579,61.715,3.665
0.083,0.984,0.421,-27.161,-90.637,-42.297,63.482,4.082
0.071,0.910,0.258,-1.648,-91.370,-42.419,66.909,4.152
0.065,0.916,0.279,-4.089,-80.444,-33.875,68.977,4.217
0.029,0.970,0.247,-9.521,-70.923,-29.846,71.985,3.578
0.038,0.920,0.277,1.892,-61.951,-25.208,73.801,3.006
0.020,0.927,0.301,-0.427,-53.345,-21.667,73.380,2.243
-0.021,0.981,0.261,-13.733,-49.011,-18.616,74.015,0.960
-0.018,0.953,0.304,-7.812,-43.884,-14.282,73.182,0.280
0.000,0.937,0.217,-16.663,-38.147,-10.742,74.083,-0.262
-0.030,0.968,0.097,-13.306,-21.606,-3.540,77.068,-0.998
-0.049,0.974,0.112,-3.723,-3.235,-0.671,79.126,-1.414
-0.011,0.952,0.232,19.714,2.197,-1.160,80.170,-1.324
-0.010,0.921,0.268,8.179,0.610,-0.549,79.374,-1.478
-0.012,0.937,0.255,1.160,0.305,-0.427,77.038,-1.209
-0.010,0.945,0.250,4.028,0.122,-0.244,74.998,-0.641
-0.013,0.931,0.258,3.296,0.366,-0.183,74.550,-0.670
-0.010,0.933,0.257,1.709,0.244,-0.305,74.755,-0.677
-0.010,0.933,0.255,3.723,0.183,0.061,74.746,-0.651
-0.013,0.935,0.256,2.747,0.244,-0.061,74.628,-0.687
-0.012,0.933,0.261,2.502,0.488,-0.793,74.587,-0.675
-0.015,0.944,0.255,9.338,1.221,0.122,74.658,-0.737
-0.017,0.967,0.257,19.226,6.714,1.526,74.759,-0.836
-0.012,0.979,0.153,-8.362,19.775,7.690,76.370,-0.818
-0.027,0.989,0.164,12.329,44.250,15.686,77.905,-1.019
-0.022,0.989,0.181,11.475,64.941,23.682,79.066,-1.113
0.042,0.949,0.221,22.827,85.938,34.851,79.569,-0.271
0.059,0.953,0.255,20.325,93.933,41.260,78.029,0.757
0.067,0.890,0.375,20.386,91.797,44.739,74.585,2.139
0.095,0.824,0.386,10.376,84.656,45.166,70.711,3.936
0.077,0.870,0.416,8.789,78.369,41.260,67.520,4.467
0.030,0.875,0.424,-1.343,71.594,36.865,64.839,4.038
-0.003,0.865,0.460,-0.183,67.139,32.959,63.676,2.972
0.022,0.823,0.443,9.521,62.378,33.203,63.017,1.872
0.063,0.866,0.411,-2.136,60.425,32.959,63.070,1.673
0.059,0.896,0.535,16.052,49.561,23.865,61.737,2.064
0.064,0.775,0.644,22.949,19.165,10.193,58.694,3.042
-0.005,0.799,0.478,-22.644,1.221,0.122,58.106,2.647
-0.014,0.917,0.372,-26.001,0.854,-2.441,59.048,1.516
-0.015,0.914,0.373,-2.441,3.357,1.709,61.275,0.450
-0.047,0.862,0.366,13.306,-3.967,2.869,65.507,-1.216
-0.028,0.838,0.363,-1.770,-0.732,-1.892,67.287,-1.555
0.002,0.917,0.410,2.686,0.122,-0.732,66.773,-1.309
-0.015,0.876,0.391,-3.357,-0.977,-1.587,66.301,-1.315
-0.009,0.874,0.367,-2.136,-1.526,-1.831,66.388,-0.730
-0.014,0.893,0.347,-4.578,-0.854,-2.075,66.936,-0.517
-0.015,0.911,0.341,-6.897,-3.296,-1.465,67.839,-0.775


0.008,0.880,0.371,2.991,-0.610,-0.916,68.141,-0.436
0.001,0.895,0.388,0.610,-3.418,-2.075,67.971,-0.283
0.030,0.812,0.400,-4.639,-13.855,-5.188,66.783,0.368
0.064,0.829,0.498,2.502,-35.278,-15.686,64.086,1.556
0.045,0.859,0.458,-0.732,-62.561,-27.832,62.743,2.095
0.044,0.886,0.387,-0.977,-78.613,-35.095,62.646,2.742
0.056,0.889,0.338,1.770,-90.149,-40.283,63.942,3.105
0.072,0.879,0.322,2.319,-95.520,-42.603,66.606,3.251
0.083,0.972,0.267,-5.737,-97.839,-42.053,69.751,3.785
0.094,0.910,0.275,-9.644,-89.722,-38.147,71.247,4.543
0.066,0.903,0.262,-2.014,-81.299,-33.264,72.316,4.704
0.050,0.963,0.269,-4.639,-71.289,-27.588,73.472,4.297
0.031,1.009,0.200,-19.592,-64.819,-23.621,74.716,3.528
-0.011,0.950,0.191,-4.333,-54.626,-18.127,76.307,1.982
-0.006,0.954,0.174,-14.465,-40.833,-10.437,77.815,0.919
-0.010,0.960,0.106,-9.216,-28.259,-7.019,80.168,0.053
-0.042,0.977,0.097,-9.277,-11.230,-1.648,81.516,-1.023
-0.016,0.968,0.189,11.414,1.038,-0.366,81.577,-1.085
-0.009,0.918,0.243,16.418,1.892,-0.671,80.495,-1.124
-0.009,0.926,0.245,1.892,-0.244,-0.305,78.388,-1.116
-0.011,0.950,0.231,1.526,0.122,-0.244,76.404,-0.658
-0.010,0.935,0.241,4.272,0.305,-0.061,75.544,-0.572
-0.011,0.939,0.239,2.441,0.061,-0.488,75.679,-0.611
-0.010,0.940,0.239,4.456,0.000,0.000,75.821,-0.614
-0.012,0.937,0.246,4.456,0.183,-0.061,75.558,-0.634
-0.010,0.944,0.245,6.775,0.610,-0.488,75.528,-0.645
-0.015,0.952,0.247,12.634,1.953,0.122,75.456,-0.700
-0.034,0.931,0.244,20.325,9.155,3.662,75.331,-1.055
-0.022,0.937,0.198,8.484,31.921,11.230,76.011,-1.206
-0.006,0.987,0.126,6.531,45.105,16.418,77.859,-1.139
-0.007,0.997,0.160,7.568,62.988,24.353,79.255,-1.012
0.027,0.947,0.237,36.072,80.994,35.156,79.451,-0.126
0.083,0.924,0.316,24.597,89.111,44.556,77.645,1.397
0.088,0.941,0.385,15.259,90.088,48.828,73.696,2.745
0.084,0.854,0.434,8.484,91.064,51.331,69.097,4.107
0.069,0.805,0.430,12.085,84.778,50.354,65.605,4.794
0.049,0.876,0.457,12.634,71.838,42.236,63.545,4.277
0.017,0.861,0.457,-2.991,61.340,34.546,62.207,3.267
0.034,0.808,0.421,6.775,53.040,31.616,62.131,2.547
0.032,0.849,0.509,-8.545,44.983,22.095,61.443,1.953
0.048,0.763,0.566,5.005,26.367,13.550,59.189,1.966
0.089,0.814,0.583,13.062,7.996,2.991,57.139,3.021
0.015,0.859,0.444,-12.756,-0.305,0.977,57.282,2.698
-0.007,0.923,0.426,1.099,4.089,3.052,58.926,2.105
-0.010,0.858,0.441,2.747,5.188,1.953,61.245,1.244
0.073,0.906,0.497,-7.812,0.732,1.038,62.971,0.998
-0.003,0.885,0.443,-5.676,1.831,-1.953,63.157,0.739
-0.003,0.886,0.411,-9.888,1.709,-1.648,63.108,0.814
0.002,0.847,0.434,7.324,-2.075,-0.366,63.113,0.997
0.002,0.850,0.428,-2.502,-0.244,-2.075,63.681,-0.031
0.005,0.855,0.407,0.854,0.366,0.061,63.964,0.093
0.003,0.861,0.412,-6.653,0.366,-1.343,63.785,0.175
-0.000,0.871,0.402,-9.705,-1.099,-1.648,64.377,0.136
-0.010,0.880,0.366,-5.981,-1.770,-2.075,65.401,-0.040


0.010,0.866,0.376,5.249,-15.686,-6.897,65.899,0.033
0.002,0.886,0.377,4.517,-20.264,-10.315,66.525,0.020
-0.009,0.891,0.366,-4.761,-19.592,-8.362,67.141,-0.112
-0.006,0.893,0.344,2.014,-16.357,-7.568,67.526,-0.048
0.016,0.889,0.403,0.366,-14.648,-5.920,67.273,0.045
0.055,0.879,0.556,12.878,-32.166,-11.841,64.817,0.827
0.006,0.880,0.429,-9.460,-48.340,-25.757,63.914,1.043
0.006,0.848,0.363,1.953,-59.448,-28.931,63.373,1.218
0.038,0.840,0.360,4.333,-64.392,-31.433,63.601,1.556
0.040,0.896,0.323,-3.357,-61.646,-27.893,66.905,1.363
0.024,0.942,0.282,-2.869,-60.120,-28.198,69.306,1.629
0.020,0.906,0.333,-0.854,-56.396,-25.146,70.017,1.829
0.031,0.909,0.330,-1.587,-56.091,-24.109,70.798,1.698
0.026,0.906,0.359,-4.333,-55.786,-23.315,70.367,1.472
0.038,0.926,0.344,-8.911,-56.702,-22.827,69.419,1.679
0.039,0.900,0.310,-7.751,-59.998,-23.132,69.669,1.967
0.023,0.915,0.277,-4.517,-61.890,-22.705,70.440,1.869
0.013,0.989,0.253,-7.690,-55.298,-17.761,72.316,1.658
-0.022,1.001,0.106,-25.330,-37.292,-8.789,76.012,0.781
-0.021,0.969,0.106,-11.902,-16.418,-2.747,79.155,-0.098
-0.020,1.009,0.172,-0.122,-1.160,-0.549,80.850,-0.719
-0.009,0.931,0.238,18.311,2.380,-0.854,80.896,-1.049
-0.008,0.935,0.247,2.197,0.183,-0.549,78.736,-0.849
-0.010,0.951,0.236,1.526,0.244,-0.183,76.837,-0.692
-0.007,0.939,0.249,7.996,1.099,-0.854,75.513,-0.512
-0.009,0.932,0.257,4.089,0.610,0.000,75.248,-0.504
-0.012,0.946,0.251,3.540,0.244,-0.183,75.228,-0.571
-0.010,0.941,0.255,6.470,0.916,-0.549,74.929,-0.564
-0.014,0.947,0.258,11.536,3.052,0.732,74.827,-0.652
-0.008,0.959,0.275,9.644,8.057,2.625,74.671,-0.640
-0.004,0.965,0.197,-13.611,29.968,12.085,75.517,-0.520
-0.047,0.986,0.127,20.874,46.509,15.747,77.434,-1.060
-0.012,0.986,0.245,20.813,59.448,21.545,77.738,-1.031
0.046,0.913,0.373,33.875,59.448,25.085,76.252,-0.259
0.057,0.843,0.402,24.719,53.772,26.978,72.877,0.629
0.026,0.861,0.352,10.376,54.932,30.579,69.085,1.719
0.002,0.845,0.356,14.648,63.477,36.560,66.732,1.976
0.019,0.856,0.357,12.695,70.862,42.847,66.636,1.603
0.047,0.839,0.421,8.118,76.721,46.021,66.352,1.454
0.053,0.844,0.422,4.028,76.965,46.814,65.234,1.866
0.029,0.892,0.451,8.118,72.754,43.335,64.198,2.230
0.032,0.894,0.501,-5.859,65.186,38.818,62.540,2.360
0.008,0.854,0.464,-17.395,66.040,37.109,62.143,1.775
0.060,0.735,0.532,16.785,57.556,34.119,59.969,1.902
0.106,0.821,0.688,20.996,30.090,16.174,56.424,2.981
-0.030,0.707,0.495,-7.385,-1.404,0.427,54.991,2.174
-0.013,0.931,0.424,-26.123,0.488,-1.099,56.147,1.831
-0.102,0.966,0.386,11.414,-3.845,-0.732,59.793,-0.565
-0.023,0.865,0.423,1.282,-2.502,-4.822,63.399,-2.488
-0.025,0.863,0.403,-7.507,-7.263,-2.502,65.603,-2.354
-0.023,0.879,0.414,-16.846,-0.732,-2.136,65.410,-2.529
-0.007,0.895,0.391,-10.132,-1.038,-1.526,64.996,-1.173
-0.009,0.894,0.381,-6.897,-0.244,-0.427,65.757,-0.955


-0.002,0.880,0.405,-0.183,0.793,0.061,65.839,-0.608
-0.005,0.859,0.414,2.258,0.061,0.122,65.720,-0.336
0.016,0.897,0.463,-7.202,-1.160,-1.709,64.780,0.014
0.049,0.860,0.561,1.465,-3.113,-1.892,62.199,0.853
0.050,0.911,0.500,-6.958,-34.668,-18.921,61.186,1.567
0.067,0.802,0.502,2.625,-59.326,-31.738,59.631,2.585
0.068,0.860,0.468,-11.597,-67.566,-31.982,59.240,3.338
0.059,0.881,0.408,-1.160,-78.491,-37.842,61.278,3.531
0.063,0.843,0.406,1.038,-83.740,-40.588,61.977,3.831
0.063,0.969,0.376,-7.690,-86.670,-41.992,64.733,3.684
0.053,0.796,0.267,-9.216,-88.257,-42.358,67.064,3.600
0.109,0.806,0.312,0.427,-89.783,-42.664,67.835,4.476
0.066,0.921,0.267,-5.981,-78.186,-32.288,70.222,4.495
0.031,0.944,0.250,-15.991,-66.895,-25.879,72.016,4.069
-0.005,0.943,0.184,-15.015,-60.364,-22.400,74.061,3.064
0.027,0.936,0.223,-4.150,-50.781,-17.395,76.028,1.771
-0.003,0.945,0.192,-14.893,-35.522,-9.399,77.290,0.744
-0.044,0.979,0.085,-6.226,-18.250,-3.845,79.804,-0.358
-0.029,1.027,0.180,2.380,-0.061,-0.366,80.050,-0.697
-0.012,0.917,0.269,21.423,3.845,-0.610,79.290,-1.261
-0.012,0.922,0.276,-1.770,-0.488,0.061,78.007,-1.402
-0.017,0.944,0.257,3.113,-0.061,-0.549,75.498,-1.013
-0.014,0.924,0.271,4.761,0.366,-0.183,73.829,-0.812
-0.014,0.936,0.262,-0.732,-0.244,-0.305,74.002,-0.839
-0.016,0.930,0.267,3.784,0.732,-0.305,74.162,-0.892
-0.011,0.928,0.271,3.662,0.000,-0.244,73.908,-0.801
-0.014,0.933,0.270,3.967,-0.061,-0.244,73.961,-0.799
-0.013,0.934,0.271,3.784,0.305,-0.427,73.833,-0.786
-0.015,0.962,0.260,10.315,-0.122,-0.549,74.062,-0.772
-0.014,0.962,0.256,15.198,4.761,1.526,74.405,-0.810
-0.017,0.961,0.299,0.427,12.634,3.357,74.113,-0.851
-0.030,0.988,0.140,4.395,30.212,11.780,76.118,-1.089
-0.010,0.990,0.200,11.230,53.162,20.752,77.047,-1.012
0.008,0.927,0.293,28.442,64.758,27.893,76.428,-0.704
0.048,0.873,0.378,29.419,70.984,34.119,75.017,0.234
0.058,0.900,0.452,21.423,74.524,38.940,70.206,1.524
0.049,0.818,0.426,8.362,73.425,42.725,66.112,2.439
0.040,0.835,0.419,14.771,71.655,41.992,63.786,2.933
0.047,0.839,0.442,0.977,71.960,42.664,62.705,2.921
0.017,0.833,0.428,0.366,71.655,41.687,62.624,2.347
0.031,0.831,0.474,-9.583,75.867,43.335,62.089,2.056
0.044,0.873,0.438,-3.845,75.256,43.274,62.109,2.091
0.046,0.858,0.544,-4.028,68.298,35.522,60.906,2.045
0.086,0.694,0.599,33.630,36.255,21.118,57.614,3.076
0.005,0.669,0.523,-10.498,-0.183,0.854,55.684,2.755
-0.043,0.908,0.407,-23.071,-2.502,-2.136,56.444,1.432
0.007,0.856,0.415,1.892,3.723,0.854,58.125,0.851
-0.016,0.833,0.442,6.653,3.540,1.953,61.312,-0.718
-0.016,0.857,0.423,-4.639,1.282,-0.061,63.953,-1.010
-0.014,0.864,0.421,4.578,1.831,0.244,63.491,-0.589
-0.040,0.848,0.410,5.493,-1.465,3.601,63.479,-1.304
-0.009,0.840,0.421,0.610,1.343,-1.343,63.808,-1.210
0.030,0.842,0.403,1.404,1.099,-0.183,64.004,-0.506
-0.019,0.849,0.404,2.319,2.136,-0.549,64.128,-0.581
0.028,0.843,0.400,0.183,1.038,0.244,64.236,0.465
-0.005,0.898,0.396,-5.310,-1.587,-1.892,64.955,0.521
-0.000,0.873,0.383,-3.540,-2.625,-1.770,65.436,0.055
-0.000,0.871,0.361,-13.306,-2.930,-2.197,66.159,0.336


-0.004,0.865,0.404,1.770,-1.099,-0.366,66.234,-0.144
0.031,0.878,0.436,-5.737,-5.615,-2.258,65.573,0.405
-0.017,0.852,0.449,-6.287,-14.282,-3.418,64.546,0.155
0.041,0.846,0.440,0.366,-33.752,-14.893,63.311,0.765
0.041,0.852,0.431,1.587,-53.162,-24.048,62.848,1.429
0.042,0.860,0.440,-0.305,-65.796,-28.809,62.655,1.592
0.053,0.877,0.405,-2.747,-71.899,-32.104,63.336,2.630
0.067,0.927,0.324,6.470,-79.041,-34.973,65.370,2.995
0.055,0.959,0.324,-8.362,-79.712,-35.583,67.402,3.155
0.051,0.924,0.267,-1.892,-77.576,-33.997,70.048,3.291
0.050,0.886,0.265,4.272,-70.984,-30.334,72.005,3.284
0.045,0.931,0.344,-1.709,-64.148,-25.696,71.803,2.952
0.023,0.943,0.256,-9.399,-58.838,-23.376,72.740,2.514
0.005,0.921,0.253,2.075,-53.650,-20.752,73.005,1.834
0.024,0.914,0.289,-10.437,-48.340,-17.944,72.833,1.427
0.016,0.940,0.189,-9.521,-44.983,-15.564,75.100,1.011
-0.023,0.959,0.166,-11.047,-35.583,-10.376,76.491,0.326
-0.041,0.980,0.123,-9.033,-18.311,-4.211,78.568,-0.356
-0.027,1.018,0.170,-0.793,-1.465,-0.793,80.490,-1.087
-0.006,0.912,0.281,10.132,1.343,-0.732,79.082,-1.411
-0.012,0.942,0.262,-1.465,-0.549,-0.061,77.694,-1.258
-0.011,0.934,0.266,7.324,0.366,0.183,75.549,-0.824
-0.012,0.928,0.272,2.563,0.244,-0.549,73.774,-0.605
-0.011,0.934,0.269,5.249,0.671,0.000,74.025,-0.675
-0.010,0.925,0.282,3.479,0.671,-0.488,73.677,-0.649
-0.000,0.923,0.300,19.409,6.226,3.662,73.163,-0.496
-0.004,0.869,0.287,12.634,6.958,1.343,72.689,-0.390
-0.010,0.918,0.238,2.991,15.015,5.737,73.056,-0.379
-0.028,0.960,0.244,8.301,27.710,10.254,73.735,-0.642
-0.020,0.959,0.260,6.897,42.419,18.616,74.432,-0.935
0.017,0.873,0.308,13.000,53.833,25.940,74.167,-0.613
0.030,0.868,0.305,17.151,60.303,32.104,73.021,-0.011
0.016,0.895,0.305,4.578,71.350,38.147,71.845,0.653
0.044,0.849,0.392,12.390,78.918,40.894,69.335,1.658
0.035,0.828,0.430,5.371,76.843,41.687,67.327,1.935
0.041,0.736,0.429,9.216,66.589,37.292,64.730,2.144
0.033,0.806,0.429,4.822,56.580,31.799,62.344,2.432
0.027,0.863,0.441,7.080,50.354,28.625,61.786,2.134
-0.010,0.891,0.410,-7.263,51.880,28.503,62.551,1.400
0.001,0.839,0.349,-7.812,55.725,30.579,64.376,0.772
0.028,0.792,0.443,1.221,50.598,26.489,64.098,0.691
0.049,0.804,0.557,35.156,23.865,11.597,62.116,1.026
-0.003,0.846,0.451,-8.789,-0.732,-0.671,61.245,1.149
-0.033,0.926,0.371,-9.888,0.916,-0.610,61.593,0.615
-0.017,0.880,0.319,26.550,0.122,7.812,63.848,-0.053
-0.000,0.843,0.380,-15.259,0.183,-6.653,66.486,-0.791
-0.024,0.875,0.353,2.380,4.272,-1.648,67.996,-1.112
-0.019,0.887,0.395,3.174,-4.089,0.671,67.435,-0.905
-0.009,0.896,0.375,-10.071,-2.930,-2.197,66.747,-0.780
-0.004,0.938,0.382,-11.169,-0.610,-1.343,67.269,-0.816


-0.009,0.892,0.403,1.282,0.183,-0.305,66.701,-0.587
-0.012,0.865,0.408,2.319,-0.916,-0.610,66.400,-0.500
-0.004,0.881,0.416,-1.099,-0.671,-0.610,65.765,-0.428
-0.003,0.864,0.419,-12.268,-5.432,-2.930,64.808,-0.423
-0.026,0.859,0.363,0.305,-18.433,-6.287,65.136,-0.680
0.026,0.859,0.440,-4.272,-38.391,-16.418,64.683,-0.111
0.064,0.891,0.393,-3.723,-59.387,-28.320,65.048,0.909
0.051,0.904,0.407,5.005,-80.383,-38.696,65.421,1.707
0.037,0.892,0.308,6.958,-87.036,-40.161,66.278,2.626
0.060,0.961,0.322,-1.282,-85.388,-37.354,68.375,3.099
0.042,0.997,0.238,-8.850,-82.581,-36.926,71.039,2.746
0.026,0.981,0.195,-6.531,-72.632,-32.227,74.314,2.370
0.054,0.879,0.270,1.282,-64.209,-28.809,74.745,2.629
0.025,0.920,0.308,-6.470,-53.345,-20.813,74.860,2.147
-0.000,0.940,0.256,-10.071,-48.218,-17.212,74.454,1.545
-0.009,0.984,0.272,-13.672,-40.466,-14.160,73.405,1.028
-0.007,0.954,0.167,-7.751,-32.349,-10.925,75.194,0.123
-0.036,0.965,0.127,-4.456,-11.047,-3.174,77.899,-0.774
-0.012,0.949,0.248,13.245,1.953,-0.122,78.028,-0.947
-0.010,0.907,0.293,11.414,1.770,0.122,77.489,-0.977
-0.008,0.920,0.284,-1.953,-0.061,-0.305,75.684,-0.991
-0.010,0.927,0.280,3.357,0.427,-0.244,73.370,-0.596
-0.010,0.927,0.284,3.845,0.671,-0.488,72.769,-0.555
-0.008,0.927,0.284,0.916,-0.061,-0.427,72.983,-0.533
-0.010,0.922,0.287,2.991,0.000,0.061,72.949,-0.560
-0.010,0.923,0.290,4.517,0.610,-0.183,72.781,-0.558
-0.006,0.930,0.295,7.874,1.709,0.305,72.639,-0.500
-0.013,0.913,0.279,8.179,4.028,1.343,72.650,-0.565
-0.022,0.900,0.255,4.211,9.949,3.784,73.006,-0.742
-0.031,0.971,0.223,6.775,24.597,10.010,74.154,-1.054
-0.020,0.947,0.242,5.615,39.551,15.808,74.960,-1.267
0.019,0.911,0.273,19.897,53.345,24.536,75.072,-0.803
0.026,0.889,0.349,23.926,64.026,31.982,73.709,-0.090
0.025,0.882,0.419,11.963,70.190,36.804,70.524,0.745
0.038,0.802,0.394,-12.878,65.186,35.156,67.563,1.652
0.054,0.934,0.402,6.226,63.904,31.677,65.879,2.148
0.012,0.906,0.359,-0.916,69.092,36.072,65.859,1.925
0.018,0.884,0.393,3.357,72.266,37.720,66.229,1.821
0.032,0.868,0.429,-0.854,68.054,34.119,66.159,1.690
0.047,0.932,0.416,12.878,57.739,29.968,65.966,1.588
0.028,0.893,0.432,-0.427,50.720,26.184,64.909,1.806
0.030,0.817,0.531,15.381,30.884,16.418,62.666,1.985
-0.003,0.709,0.491,25.879,4.822,4.150,60.785,1.523
-0.031,0.841,0.432,-9.277,2.075,0.977,59.930,0.366
-0.021,0.862,0.437,4.150,4.456,0.854,59.632,-0.370
-0.044,0.971,0.609,-16.846,3.235,-1.770,59.764,-1.447
-0.026,0.859,0.437,1.160,-0.732,-1.953,61.488,-1.740
-0.027,0.863,0.451,4.883,1.160,-2.380,61.418,-1.676
-0.030,0.879,0.419,4.944,-0.244,-1.282,61.740,-1.800
-0.012,0.891,0.447,-3.662,0.244,-1.770,63.300,-1.394
-0.015,0.830,0.425,-4.028,-0.916,-0.916,63.277,-1.245
0.005,0.875,0.430,-10.498,-0.183,1.099,63.642,-0.761


-0.006,0.856,0.413,-0.977,0.366,-0.488,63.580,-0.410
-0.006,0.855,0.411,-1.404,0.549,0.244,63.831,-0.331
0.009,0.862,0.416,-3.601,-1.526,-1.465,64.159,0.040
0.037,0.872,0.498,-9.949,-10.559,-4.089,63.225,0.515
0.048,0.810,0.514,9.888,-27.832,-11.230,61.561,1.315
0.040,0.823,0.503,-3.235,-50.964,-24.902,60.101,1.992
0.073,0.826,0.417,-2.991,-71.106,-33.508,59.761,2.947
0.071,0.875,0.385,4.456,-86.243,-41.016,61.199,3.497
0.039,0.954,0.273,-4.822,-87.402,-39.856,65.397,3.343
0.052,0.941,0.264,4.333,-85.999,-38.147,69.305,3.510
0.043,0.969,0.310,2.502,-75.562,-32.043,71.533,2.991
0.020,0.947,0.280,-8.301,-63.293,-25.574,73.384,2.223
0.019,0.928,0.229,-10.498,-51.453,-20.752,73.918,1.944
-0.005,0.937,0.237,-3.174,-41.260,-15.564,74.355,1.119
0.006,0.956,0.263,-9.827,-32.288,-11.475,74.995,0.586
-0.023,0.944,0.230,-9.033,-27.039,-9.094,75.701,-0.043
-0.005,0.894,0.266,2.563,-23.865,-8.484,75.045,-0.398
-0.011,0.926,0.214,-0.793,-19.470,-5.920,75.326,-0.493
-0.032,0.990,0.191,-0.671,-12.695,-3.235,76.457,-1.058
-0.014,0.916,0.192,4.089,-3.113,-1.465,76.925,-0.934
-0.011,0.943,0.259,15.015,1.343,-0.366,77.171,-1.010
-0.015,0.916,0.282,3.052,0.244,-0.244,76.169,-1.065
-0.016,0.938,0.264,2.502,0.061,-0.122,74.944,-0.828
-0.012,0.929,0.275,1.526,-0.122,-0.305,73.807,-0.790
-0.013,0.935,0.267,2.258,0.183,-0.488,73.658,-0.820
-0.012,0.929,0.271,2.686,0.000,-0.244,73.866,-0.782
-0.012,0.928,0.271,2.258,0.061,-0.549,73.733,-0.731
-0.010,0.947,0.264,7.874,0.610,0.000,73.969,-0.705
-0.011,0.902,0.215,14.771,8.423,2.441,74.589,-0.690
-0.031,0.915,0.228,10.132,18.616,6.409,75.143,-0.971
-0.022,1.005,0.203,7.385,39.490,15.625,76.396,-1.108
0.011,0.941,0.265,21.606,62.805,28.992,76.387,-0.788
0.047,0.903,0.318,21.667,73.181,37.964,74.941,0.079
0.059,0.848,0.412,20.691,76.660,43.335,72.010,1.411
0.048,0.833,0.446,5.127,73.547,43.579,67.649,2.498
0.038,0.880,0.437,4.700,67.749,40.283,64.890,2.885
0.011,0.852,0.458,2.930,64.575,37.354,62.724,2.340
0.008,0.870,0.423,-1.770,59.570,34.363,62.773,1.568
0.019,0.856,0.449,-8.606,56.641,32.166,62.901,1.131
0.016,0.821,0.458,-15.686,56.885,33.691,62.232,0.816
0.029,0.772,0.483,8.240,48.889,25.452,61.327,1.094
0.005,0.849,0.510,-3.235,31.860,16.174,60.032,1.036
0.015,0.726,0.512,24.414,6.287,0.977,58.194,0.995
-0.031,0.885,0.391,-14.343,-2.380,-2.136,59.592,0.278
-0.037,0.895,0.408,10.742,7.019,2.197,61.497,-0.715
-0.014,0.830,0.462,5.493,3.357,1.038,61.986,-1.009
-0.071,0.982,0.792,-26.001,-4.822,-1.221,60.179,-2.109
0.004,0.843,0.436,-4.822,0.671,-2.258,59.370,-1.642
-0.012,0.880,0.400,-10.803,0.244,-1.831,59.367,-1.303
-0.005,0.916,0.410,-13.550,-3.235,-0.854,60.597,-1.168


-0.010,0.892,0.393,4.211,-0.854,-0.610,65.100,-0.354
-0.013,0.878,0.391,1.343,-0.793,-0.671,65.920,-0.593
0.001,0.872,0.426,0.610,-3.723,-2.319,65.527,-0.395
0.008,0.829,0.368,-6.958,-24.048,-11.963,65.565,-0.205
0.046,0.911,0.466,-14.221,-43.579,-20.874,64.678,0.634
0.052,0.878,0.406,-1.892,-58.411,-26.062,64.437,1.596
0.078,0.814,0.382,5.066,-71.228,-30.396,64.570,2.780
0.067,0.866,0.430,7.568,-72.327,-31.006,63.875,3.605
0.035,0.899,0.413,10.437,-68.481,-27.039,64.529,3.462
0.035,0.947,0.332,-5.127,-67.810,-30.579,65.981,3.176
0.027,0.913,0.272,-15.869,-69.702,-33.813,68.115,2.391
0.079,0.809,0.284,-3.723,-68.970,-30.701,69.795,2.650
0.028,0.876,0.329,-1.953,-60.913,-24.292,70.883,2.579
0.017,0.923,0.280,-5.432,-53.345,-19.409,71.551,2.324
-0.005,0.973,0.252,-10.010,-48.340,-16.541,72.188,1.806
0.011,0.936,0.230,-3.296,-44.128,-15.686,73.595,0.747
-0.017,0.974,0.157,-8.301,-33.386,-9.888,76.431,0.088
-0.033,0.986,0.142,-3.845,-9.766,-2.502,78.577,-0.634
-0.015,0.952,0.235,18.982,2.136,-0.732,78.744,-0.788
-0.005,0.925,0.273,2.930,-0.122,-0.977,78.086,-1.032
-0.014,0.945,0.261,4.700,0.305,-0.183,76.519,-0.993
-0.009,0.921,0.281,3.418,0.122,-0.183,74.328,-0.640
-0.011,0.934,0.268,1.831,0.305,-0.183,73.790,-0.573
-0.013,0.926,0.282,5.188,0.244,0.000,73.663,-0.679
-0.010,0.922,0.286,3.723,0.488,-0.549,73.208,-0.622
-0.012,0.938,0.275,5.737,0.610,-0.244,73.361,-0.670
-0.004,0.919,0.270,12.268,5.554,1.892,73.271,-0.571
-0.034,0.957,0.253,0.916,14.221,4.883,73.795,-0.879
-0.025,0.978,0.200,1.221,34.851,12.878,75.220,-1.093
-0.022,0.931,0.209,25.757,54.626,22.705,76.115,-1.247
0.032,0.944,0.312,29.541,68.481,30.640,75.655,-0.717
0.049,0.900,0.342,7.996,77.026,38.452,74.185,0.498
0.057,0.842,0.404,13.367,79.895,43.884,70.624,1.729
0.054,0.827,0.435,5.432,79.712,46.570,66.810,2.873
0.040,0.788,0.510,7.629,72.571,42.603,63.108,3.043
0.030,0.798,0.477,0.427,63.049,37.292,60.600,2.774
0.005,0.847,0.422,-4.944,55.786,32.715,60.453,1.977
0.014,0.862,0.386,-0.977,53.467,32.227,61.393,1.373
0.010,0.899,0.435,-0.305,58.594,31.616,63.195,0.902
0.061,0.820,0.603,25.818,35.461,18.677,61.661,1.338
0.007,0.804,0.564,6.714,4.761,4.150,59.545,1.357
-0.053,0.871,0.437,-5.249,-0.305,0.977,59.002,0.368
-0.024,0.834,0.456,12.451,5.249,2.991,58.241,-0.136
-0.029,0.828,0.451,-1.465,2.075,0.610,60.201,-1.479
-0.042,0.859,0.440,13.672,1.099,1.099,62.165,-2.222
-0.021,0.870,0.380,-11.292,-0.549,-2.991,62.944,-1.755
-0.005,0.856,0.420,3.662,-3.174,-2.075,63.599,-1.456
-0.012,0.864,0.440,-1.343,-2.686,-2.258,63.996,-1.198
-0.016,0.877,0.416,-1.038,-2.197,-3.967,64.450,-0.804


-0.012,0.891,0.391,-0.244,0.488,-0.122,64.439,-0.666
-0.017,0.872,0.390,1.709,-0.793,-0.610,64.938,-0.850
-0.024,0.892,0.373,-2.075,-0.671,-0.671,66.010,-1.022
-0.007,0.877,0.418,0.061,-3.540,-2.197,66.000,-0.883
0.002,0.875,0.391,-3.479,-7.202,-3.113,65.907,-0.670
0.028,0.869,0.459,2.930,-13.611,-5.615,64.963,0.004
0.025,0.855,0.466,-8.789,-31.311,-13.611,63.476,0.727
0.041,0.861,0.409,-3.113,-51.270,-22.705,63.453,1.429
0.068,0.877,0.383,-3.235,-68.787,-28.931,63.511,2.397
0.046,0.934,0.333,0.061,-75.439,-31.921,65.582,2.650
0.026,0.967,0.278,-6.592,-75.378,-33.203,68.758,2.642
0.016,0.855,0.258,-8.240,-70.862,-33.936,70.853,2.311
0.060,0.789,0.266,12.756,-72.327,-32.776,72.113,2.267
0.053,0.937,0.315,0.244,-65.857,-25.513,72.364,2.387
0.019,0.954,0.277,-10.559,-59.021,-23.010,72.337,2.288
0.008,0.941,0.249,-10.681,-55.115,-21.057,72.869,2.122
-0.003,0.913,0.248,-8.850,-55.847,-20.935,73.741,1.128
0.018,0.984,0.270,-8.484,-52.063,-16.785,74.597,0.608
-0.041,0.920,0.084,-13.367,-32.532,-6.714,77.236,-0.280
-0.042,0.994,0.104,-9.094,-9.888,-2.197,79.465,-1.007
-0.015,0.961,0.216,18.250,1.892,-0.916,80.038,-1.160
-0.010,0.913,0.260,4.761,0.366,-0.732,79.935,-1.609
-0.016,0.958,0.229,0.488,-0.122,-0.305,78.004,-1.209
-0.014,0.934,0.246,6.348,0.244,-0.183,75.798,-0.814
-0.013,0.942,0.243,-0.916,-0.122,-0.549,75.343,-0.787
-0.013,0.950,0.235,2.075,0.061,-0.671,75.831,-0.817
-0.012,0.938,0.245,6.165,0.305,-0.122,75.541,-0.767
-0.018,0.944,0.250,10.010,1.770,-0.122,75.528,-0.822
-0.021,0.926,0.251,17.700,8.423,2.197,75.349,-0.954
-0.010,0.958,0.231,9.460,25.513,9.399,75.445,-0.902
-0.026,0.983,0.200,3.052,42.419,15.686,76.224,-1.103
0.001,0.970,0.240,16.235,59.204,23.376,76.468,-0.824
0.026,0.915,0.284,19.714,71.289,32.288,75.978,-0.138
0.049,0.885,0.332,8.057,83.435,42.114,74.259,0.725
0.058,0.908,0.422,9.399,88.379,46.143,70.729,1.964
0.051,0.825,0.457,2.808,79.163,42.786,66.890,2.742
0.039,0.815,0.457,2.075,66.528,36.499,63.907,2.961
0.017,0.852,0.415,-5.981,55.359,29.358,62.625,2.477
0.004,0.838,0.378,-10.498,57.007,28.931,62.795,1.715
0.019,0.841,0.391,-7.385,59.204,29.114,63.847,1.237
0.054,0.874,0.502,24.292,42.175,20.020,63.628,1.439
0.033,0.879,0.567,11.719,15.930,7.507,61.795,1.636
-0.024,0.856,0.409,-10.864,2.625,1.648,61.541,1.214
-0.010,0.888,0.363,-3.723,4.456,1.465,62.230,0.787
0.026,0.881,0.377,14.221,0.549,1.221,63.914,0.380
-0.051,0.907,0.373,-15.564,1.343,-1.404,66.683,-0.869
-0.009,0.905,0.322,-2.563,-0.549,-2.930,68.156,-0.653
-0.001,0.876,0.343,2.563,-1.770,-4.333,68.368,-0.534
0.001,0.902,0.333,0.488,0.122,-2.808,69.074,-0.905
-0.003,0.901,0.327,0.488,-0.244,-1.343,69.703,-0.194


-0.008,0.901,0.348,1.099,-0.671,-0.671,69.318,-0.170
-0.004,0.927,0.363,-0.183,-1.526,-0.671,69.304,-0.207
-0.003,0.871,0.351,2.258,-2.319,-0.793,68.889,-0.268
0.042,0.942,0.426,-3.845,-11.963,-4.822,67.763,0.395
0.041,0.892,0.428,-2.136,-39.307,-16.479,66.623,1.099
0.053,0.852,0.404,1.404,-58.716,-24.353,65.595,1.947
0.038,0.920,0.371,1.648,-72.083,-31.433,65.582,2.509
0.033,0.916,0.360,-1.648,-67.932,-26.550,66.307,2.412
0.021,0.894,0.380,2.808,-59.937,-22.766,66.996,2.128
0.008,0.890,0.305,-4.150,-55.298,-23.437,68.605,1.468
0.015,0.922,0.313,11.780,-53.589,-22.461,69.426,1.141
0.031,0.940,0.356,-3.418,-52.368,-21.790,69.605,1.102
0.006,0.940,0.336,-9.155,-52.307,-23.010,70.443,0.875
0.030,0.852,0.314,-2.686,-56.335,-23.376,70.105,1.211
0.033,0.875,0.308,1.892,-59.509,-23.560,69.919,1.490
0.036,0.912,0.338,1.221,-56.274,-21.240,70.021,1.585
0.017,0.926,0.250,-14.282,-52.979,-17.395,71.166,1.764
-0.021,0.995,0.142,-14.160,-39.856,-12.817,74.322,0.959
-0.027,0.960,0.132,-7.141,-15.320,-3.296,77.184,0.061
-0.019,0.962,0.220,7.263,0.366,-0.183,79.010,-0.749
-0.004,0.907,0.273,10.681,1.831,-0.916,78.592,-1.058
-0.010,0.939,0.256,-1.343,-0.183,0.122,76.794,-0.900
-0.012,0.922,0.267,4.517,0.305,-0.122,74.742,-0.668
-0.011,0.926,0.268,3.418,-0.183,-0.366,73.921,-0.549
-0.012,0.937,0.261,3.418,0.183,-0.366,74.218,-0.660
-0.010,0.931,0.264,3.662,0.427,-0.427,74.079,-0.655
-0.012,0.928,0.270,2.380,0.488,-0.122,74.057,-0.665
-0.010,0.928,0.271,3.662,0.244,-0.366,74.013,-0.653
-0.010,0.938,0.268,5.005,0.122,-0.183,73.915,-0.633
-0.013,0.923,0.282,9.888,2.686,0.854,73.616,-0.681
0.001,0.875,0.237,8.301,9.644,2.930,73.869,-0.488
-0.038,0.995,0.214,2.197,27.527,10.925,74.937,-0.900
-0.049,0.960,0.136,21.118,49.500,20.752,76.866,-1.472
0.001,0.969,0.251,30.151,71.167,32.043,77.493,-1.251
0.060,0.864,0.346,25.269,80.261,41.992,75.956,-0.389
0.074,0.797,0.406,20.569,76.599,44.739,72.347,1.311
0.049,0.804,0.457,13.611,71.777,44.128,66.801,2.819
0.036,0.831,0.486,5.188,64.819,40.100,62.581,3.383
0.016,0.854,0.474,2.930,55.359,33.752,60.854,2.677
0.023,0.861,0.504,0.244,46.509,27.527,60.103,1.840
-0.005,0.901,0.479,-4.150,41.443,22.949,60.558,1.017
0.002,0.810,0.413,-11.597,38.147,20.569,61.349,0.518
0.000,0.924,0.411,-22.705,39.734,19.714,62.645,0.283
0.002,0.841,0.399,2.563,39.673,21.301,63.901,-0.018
0.008,0.858,0.476,18.982,32.227,18.555,63.657,0.172
-0.002,0.830,0.558,19.104,17.090,9.583,61.897,0.116
-0.028,0.786,0.467,-16.846,3.601,1.648,60.181,-0.302
0.021,1.031,0.519,7.690,-2.441,6.531,60.043,-0.019
-0.000,0.849,0.424,2.441,3.662,-0.122,60.625,-0.129
-0.050,0.835,0.395,1.953,0.854,1.343,62.706,-0.828
-0.014,0.879,0.416,3.906,-2.747,-0.488,63.970,-0.617
-0.010,0.875,0.401,-7.324,-1.648,-0.610,64.512,-1.115
-0.021,0.872,0.374,-14.221,-0.549,-0.122,65.325,-1.436


0.003,0.861,0.391,-3.357,-3.357,-1.892,65.587,-0.637
0.014,0.923,0.423,-14.526,-5.432,-2.625,65.771,-0.217
0.031,0.891,0.441,-19.409,-21.423,-10.315,65.330,0.389
0.029,0.840,0.412,8.728,-40.344,-17.883,64.608,1.136
0.037,0.843,0.398,10.559,-60.852,-24.170,64.368,1.648
0.021,0.855,0.371,14.771,-78.613,-38.147,64.623,1.795
0.056,0.923,0.396,5.066,-79.590,-35.950,65.423,2.160
0.012,0.996,0.308,-12.878,-70.374,-33.936,67.768,1.853
0.012,0.782,0.275,18.799,-69.458,-33.630,69.165,1.516
0.020,0.881,0.351,14.404,-65.613,-28.259,69.587,1.491
0.034,0.991,0.373,-3.235,-62.256,-26.062,70.269,1.147
0.024,1.010,0.294,-24.353,-55.969,-24.536,70.523,1.319
0.008,0.925,0.249,-5.310,-51.453,-20.569,71.543,1.227
0.012,0.916,0.304,-3.357,-49.622,-19.287,72.335,1.112
0.000,0.983,0.214,-12.878,-42.053,-14.526,74.512,0.642
-0.052,0.992,0.133,-6.104,-18.982,-5.432,76.723,-0.464
-0.015,0.984,0.216,5.432,0.610,-0.244,77.377,-0.796
-0.008,0.899,0.295,17.700,1.770,-0.793,77.425,-1.093
-0.008,0.922,0.285,-2.258,-0.305,-0.427,76.205,-1.229
-0.008,0.920,0.287,4.883,0.366,-0.061,73.789,-0.579
-0.010,0.922,0.287,1.038,-0.122,0.000,72.509,-0.510
-0.010,0.922,0.290,2.319,0.122,-0.366,72.680,-0.532
-0.010,0.924,0.290,2.808,-0.061,-0.122,72.614,-0.563
-0.010,0.923,0.289,1.831,0.366,-0.244,72.592,-0.598
-0.008,0.921,0.293,3.723,0.427,-0.183,72.513,-0.571
-0.007,0.926,0.291,1.892,0.244,-0.305,72.525,-0.536
-0.007,0.923,0.292,1.709,0.122,-0.305,72.495,-0.489
-0.010,0.923,0.294,3.723,0.366,-0.122,72.422,-0.480
-0.011,0.925,0.294,3.906,0.244,0.061,72.419,-0.523
-0.016,0.923,0.284,7.874,3.845,1.831,72.492,-0.650
-0.000,0.921,0.241,5.310,14.099,5.798,73.215,-0.550
-0.014,0.923,0.187,9.766,34.851,15.625,74.753,-0.625
-0.030,0.917,0.184,19.958,58.899,26.672,76.309,-0.917
0.025,0.901,0.264,28.198,77.148,38.208,76.555,-0.297
0.058,0.876,0.334,28.259,88.562,46.692,74.994,0.594
0.081,0.835,0.395,19.653,85.815,49.927,71.450,2.063
0.070,0.804,0.476,5.981,75.806,45.593,66.471,3.609
0.042,0.845,0.511,4.639,61.829,37.903,62.700,3.818
0.010,0.815,0.517,-0.610,44.312,27.161,59.937,3.060
-0.026,0.876,0.444,-5.615,39.368,22.400,59.717,1.430
-0.016,0.905,0.432,-3.784,41.504,23.926,61.049,0.148
-0.017,0.864,0.409,-5.981,43.152,25.757,62.482,-0.726
-0.026,0.837,0.437,0.610,47.058,26.001,63.662,-1.262
0.009,0.840,0.514,4.883,39.246,22.217,62.513,-0.753
0.033,0.797,0.524,24.841,19.531,6.104,60.544,-0.036
0.016,0.831,0.344,-11.169,-1.099,-2.258,61.158,0.465
-0.064,0.903,0.419,-2.869,2.136,-5.005,61.870,-0.101
0.009,0.870,0.418,3.113,-1.099,-0.916,63.361,-0.094
-0.016,0.892,0.439,5.310,-1.465,-1.770,65.116,-0.818
-0.015,0.831,0.430,1.160,-2.197,-2.258,63.959,-1.269
-0.005,0.842,0.424,0.183,-1.038,-1.648,63.526,-0.412
-0.019,0.862,0.418,-7.690,-2.869,-1.892,63.472,-0.838


0.005,0.875,0.407,-14.282,-5.554,-2.930,63.790,-0.519
-0.004,0.848,0.392,-8.667,-20.264,-10.010,64.415,-0.352
0.021,0.868,0.419,2.869,-35.095,-14.709,64.641,0.037
0.069,0.918,0.416,2.808,-52.856,-21.729,64.981,1.344
0.030,0.943,0.312,10.742,-68.298,-31.677,66.649,1.695
0.004,0.877,0.242,23.315,-73.853,-34.912,68.839,1.825
0.008,0.834,0.286,24.353,-73.792,-32.288,70.546,1.678
0.002,0.897,0.289,0.671,-73.730,-38.025,72.345,0.681
0.046,0.928,0.336,-6.348,-67.566,-32.715,71.922,0.937
0.022,0.855,0.302,-12.207,-64.697,-31.067,70.934,1.223
0.035,0.842,0.323,-0.549,-63.354,-27.039,70.408,1.630
0.024,0.918,0.335,-14.526,-56.213,-19.958,69.833,1.936
0.011,0.965,0.197,-19.714,-53.040,-18.616,72.050,1.410
0.038,0.904,0.193,3.296,-47.302,-17.273,73.829,1.636
-0.010,0.950,0.197,-8.240,-34.729,-11.658,76.130,0.927
-0.028,0.982,0.143,-7.935,-13.367,-3.601,79.140,0.161
-0.021,0.956,0.235,17.212,1.038,-0.122,78.550,-0.318
-0.005,0.890,0.299,11.597,1.221,-0.732,76.933,-0.954
-0.013,0.938,0.268,-1.526,-0.427,-0.305,75.864,-0.987
-0.012,0.924,0.281,7.629,0.732,-0.183,73.682,-0.753
-0.010,0.924,0.282,1.221,-0.183,-0.427,72.892,-0.600
-0.014,0.923,0.285,3.174,-0.122,-0.122,73.235,-0.721
-0.011,0.923,0.284,2.014,-0.061,-0.244,72.948,-0.697
-0.012,0.927,0.282,2.808,0.244,-0.305,72.946,-0.700
-0.010,0.933,0.282,3.784,0.549,-0.366,72.975,-0.684
-0.017,0.934,0.281,7.141,1.465,0.305,73.078,-0.724
-0.013,0.943,0.288,7.812,6.042,2.075,73.108,-0.747
-0.019,0.932,0.259,3.967,12.939,4.333,73.455,-0.849
-0.001,0.991,0.228,10.010,31.189,11.536,74.455,-0.722
-0.023,0.957,0.227,13.611,45.044,19.043,75.285,-0.814
0.003,0.924,0.307,23.743,58.167,27.466,74.962,-0.586
0.028,0.856,0.394,17.822,65.063,34.119,72.771,0.097
0.017,0.848,0.411,15.930,65.552,37.903,69.513,0.375
0.032,0.828,0.425,9.338,64.087,41.016,65.986,1.207
0.033,0.819,0.447,-4.761,63.416,41.016,63.345,1.678
0.027,0.867,0.467,-0.244,57.617,29.724,62.431,1.640
0.003,0.858,0.465,-5.676,50.293,27.405,61.794,1.408
0.004,0.923,0.448,1.038,48.767,25.696,62.177,0.973
-0.008,0.857,0.407,2.869,47.058,24.658,62.975,0.375
0.004,0.878,0.403,-3.967,45.105,25.635,63.883,0.050
-0.003,0.899,0.442,7.446,41.992,21.912,64.449,-0.037
-0.002,0.836,0.456,-1.831,34.119,17.761,63.783,-0.132
-0.000,0.844,0.482,18.188,25.818,14.709,62.709,-0.025
0.010,0.775,0.506,23.193,12.451,6.226,60.658,0.053
-0.073,0.940,0.572,-7.202,-7.141,4.272,59.299,-0.958
-0.024,0.795,0.459,3.723,1.526,-3.357,58.939,-1.288
-0.026,0.867,0.439,-4.517,0.793,-2.014,59.631,-1.662
-0.026,0.836,0.447,2.319,-0.793,-0.732,60.785,-2.176
-0.010,0.839,0.445,-3.845,-0.977,-2.075,61.767,-1.306
-0.020,0.851,0.431,-2.991,-1.160,-1.404,62.544,-1.237
-0.020,0.857,0.414,-5.554,-1.221,-1.587,62.813,-1.153
0.005,0.864,0.426,-6.165,-1.343,-3.540,63.289,-0.681

