aX,aY,aZ,gX,gY,gZ,Roll,Pitch
0.046,0.993,0.013,-1.343,-7.141,-4.15,87.247,2.654
0.084,0.984,0.033,2.869,6.714,3.479,85.999,3.775
-0.002,1.018,0.038,0.366,12.451,-0.977,87.076,2.447
0.08,0.976,0.059,-2.197,0.305,-0.305,86.368,2.992
0.06,0.997,0.03,2.075,0.183,0.854,86.066,3.191
0.08,0.971,0.048,2.869,3.113,0.122,85.972,3.139
0.068,0.974,0.036,6.348,0.854,-0.732,85.1,4.203
0.087,0.976,0.06,3.296,2.38,0.183,84.993,4.317
0.073,0.962,0.088,1.953,-1.099,0.916,84.323,4.534
0.117,0.991,0.169,-0.305,-6.897,7.019,82.787,5.034
0.172,0.93,0.278,2.991,-54.443,-1.038,79.06,6.564
0.145,0.971,0.09,-2.197,-90.21,-5.737,78.201,7.396
0.128,0.969,0.041,-2.38,-101.196,-10.132,78.192,8.198
0.137,0.942,0.056,-3.357,-97.473,-10.803,78.934,8.62
0.099,0.985,0.031,-10.254,-84.412,-6.409,81.85,7.481
0.07,0.968,-0.01,-13.611,-70.313,-1.465,83.355,6.407
-0.007,0.934,-0.116,-0.244,-48.95,-1.099,85.505,4.458
-0.058,0.98,-0.158,-4.456,-33.691,-1.831,85.964,1.532
0.016,1.014,0.057,19.409,0.671,-0.061,86.658,0.305
0.043,0.974,0.062,-1.709,1.221,-0.488,87.723,-0.097
0.055,1,0.081,1.404,1.099,-0.488,88.992,0.807
0.043,0.98,0.052,0.061,0.977,-0.183,85.723,2.262
0.043,0.983,0.046,1.099,0.854,-0.305,85.605,2.668
0.045,0.985,0.043,2.747,0.427,-0.671,85.816,2.688
-0.025,0.978,0.08,2.563,0.61,0,86.44,1.531
-0.005,1.016,-0.085,-8.179,26.855,-2.014,88.537,0.83
0.057,0.991,-0.107,23.804,78.308,-3.845,88.569,1.029
0.14,1.001,0.108,11.047,85.693,6.531,87.611,2.388
0.169,1.02,0.158,10.742,73.914,8.179,84.78,5.112
0.132,0.961,0.055,15.198,75.806,8.85,82.239,7.122
0.15,0.989,0.083,24.902,78.003,12.207,79.788,8.412
0.105,0.879,0.088,19.958,74.829,12.512,80.047,8.172
0.161,0.919,0.141,4.395,80.261,13,80.018,8.273
0.196,0.955,0.306,10.498,53.101,8.423,76.915,9.16
0.052,0.941,0.165,-32.227,-3.174,-0.549,76.764,7.778
0.07,0.998,0.028,-8.362,-0.793,2.014,78.16,7.051
0.085,0.98,0.066,1.587,0.122,-0.977,79.844,5.869
0.09,0.956,0.028,-1.831,-2.625,0.61,83.917,4.368
0.069,0.975,0.082,7.019,0.61,-1.465,84.534,4.583
0.091,0.995,0.05,2.686,2.014,-0.427,84.089,4.897
0.091,0.981,0.056,-3.113,0.183,0.549,84.102,4.98
0.105,0.949,0.093,-1.099,1.343,-3.54,83.365,5.202
0.08,0.986,0.058,1.404,1.648,0.122,83.461,5.35
aX,aY,aZ,gX,gY,gZ,Roll,Pitch
0.174,1.026,0.075,-3.174,1.221,2.808,82.33,6.488
0.089,0.979,0.055,3.601,3.174,0.854,82.354,6.465
0.166,1.041,0.028,12.207,4.028,-5.432,82.193,7.177
0.094,0.972,0.064,2.38,1.587,-0.244,81.954,7.399
0.092,0.973,0.094,2.625,1.709,-0.122,82.777,6.33
0.091,0.976,0.082,2.136,0.793,0.244,82.558,6.356
0.086,0.977,0.083,2.014,1.099,0.305,82.893,5.296
0.074,0.976,0.101,2.075,1.465,-0.061,82.734,5.003
0.084,0.976,0.083,2.136,1.221,0.122,82.939,4.884
0.089,0.975,0.083,1.953,0.977,0.244,82.948,4.861
0.083,0.964,0.098,-0.183,1.648,2.014,82.792,4.827
0.144,0.94,0.287,15.442,-24.719,-0.488,79.989,5.856
0.166,0.95,0.174,0.793,-72.388,-4.944,78.161,7.078
0.184,0.961,0.103,2.686,-81.909,-11.536,77.04,8.474
0.171,0.927,0.031,-6.348,-109.436,-12.573,76.719,9.864
0.201,0.97,0.064,-10.437,-103.943,-10.071,77.963,10.686
0.089,0.976,0.035,-15.686,-86.853,0.671,79.861,9.531
0.13,1.026,-0.011,-11.963,-64.148,-2.686,81.211,8.615
0.063,0.993,-0.023,-9.155,-42.786,-1.404,83.002,6.935
-0.04,1.008,-0.07,-0.977,-8.362,-0.427,86.409,3.454
0.039,0.951,0.094,16.113,-0.916,-2.808,87.237,2.76
0.038,0.985,0.066,-0.488,0.732,0.183,88.246,1.456
0.042,0.98,0.068,0.488,0.488,-0.122,87.419,1.161
0.043,0.982,0.066,1.526,1.221,0.122,85.073,2.377
0.072,0.931,-0.038,2.869,1.526,-0.305,86.263,2.876
-0.005,0.94,0.027,-13.489,19.287,-1.587,87.09,2.262
0.061,1.014,-0.037,12.207,28.931,-2.563,87.462,2.525
0.05,0.989,0.009,10.803,51.758,1.404,87.302,2.632
0.098,0.935,0.091,20.569,53.101,7.568,86.71,3.014
0.121,0.968,0.098,13,61.401,7.629,84.621,4.837
0.126,0.985,0.189,-8.362,68.909,8.24,81.88,5.795
0.143,1.068,0.069,4.089,68.298,8.362,80.508,6.985
0.142,0.986,0.088,19.836,80.139,11.78,80.203,7.507
0.138,0.964,0.069,9.155,88.257,11.292,80.261,7.751
0.183,0.927,0.127,8.118,79.285,7.935,79.929,8.691
0.172,0.976,0.234,-0.671,34.18,3.418,78.002,9.269
0.196,1.139,-0.03,-13.245,-7.996,4.944,78.75,9.716
0.08,0.998,0.066,1.465,-1.648,0.793,79.55,8.838
0.096,0.995,0.061,0.916,1.099,0.488,81.198,7.515
0.125,0.927,0.105,1.892,1.953,0,82.474,6.974
0.031,0.995,0.069,-2.075,-4.517,1.77,83.48,4.831
aX,aY,aZ,gX,gY,gZ,Roll,Pitch
0.073,1.004,0.066,-3.296,-5.249,1.404,83.555,4.734
0.089,0.989,0.052,5.615,11.78,-2.563,83.698,4.649
0.095,0.942,0.104,5.066,1.892,-1.587,84.046,4.195
0.091,0.971,0.09,1.526,1.587,-0.244,83.173,5.085
0.095,0.981,0.081,3.662,0.061,0,82.753,5.431
0.091,0.972,0.095,0.549,2.563,1.099,82.276,5.469
0.099,0.976,0.085,0.671,1.648,0.244,82.497,5.478
0.099,0.983,0.083,2.197,1.221,-0.549,82.505,5.577
0.098,0.974,0.086,1.648,1.404,0.305,82.409,5.624
0.091,0.979,0.094,-0.61,-5.676,2.502,82.425,5.622
0.156,0.964,0.197,0.61,-46.326,-1.648,80.686,6.446
0.194,0.971,0.12,-2.441,-73.975,-4.089,79.31,7.833
0.169,0.97,0.08,-7.874,-99.915,-5.493,78.588,8.865
0.138,1.011,0.047,-9.766,-97.046,-6.287,78.554,9.462
0.173,0.999,0.066,-1.831,-108.521,-5.188,79.338,9.662
0.133,1.007,-0.031,-1.709,-81.97,-0.549,80.953,8.745
0.01,0.982,-0.143,-5.981,-61.279,-2.197,83.451,6.491
-0.047,0.996,-0.107,6.714,1.465,0.61,85.046,3.88
0.052,0.966,0.069,0.671,0.488,-0.793,86.25,2.164
0.037,0.979,0.056,2.441,0.61,-0.366,88.02,0.782
0.037,0.986,0.042,3.723,0.366,0.305,88.545,1.164
0.042,0.98,0.052,4.272,0.549,0.488,85.962,2.458
0.038,0.995,0.041,4.089,2.991,-0.305,86.445,2.228
0.015,0.984,-0.029,5.432,19.958,-2.563,87.545,1.906
0.05,0.951,-0.079,10.559,40.344,-1.77,87.874,2.115
0.076,0.952,0.057,8.423,56.702,2.93,87.363,2.633
0.11,0.99,0.093,5.798,61.584,3.662,86.246,3.704
0.125,0.963,0.109,20.752,63.782,8.484,84.035,5.344
0.103,0.859,0.067,22.766,73.853,13.733,82.031,6.264
0.151,1.055,0.124,-0.122,87.402,11.414,80.781,7.182
0.26,1.025,0.181,13.245,79.895,12.268,78.409,9.242
0.107,0.88,0.089,15.93,71.777,15.381,78.551,9.17
0.2,0.89,0.354,8.118,41.016,7.08,74.932,10.363
0.103,1.087,0.122,-19.104,0.671,2.625,75.525,9.609
0.071,0.901,0.097,-5.554,3.174,-6.592,77.715,7.177
0.096,0.949,0.151,11.658,8.728,-3.113,77.287,6.884
0.204,0.953,0.076,-1.282,-1.831,9.888,80.494,6.909
0.068,0.991,0.089,4.211,4.333,-4.395,80.966,6.572
0.096,0.96,0.115,0.549,-0.366,1.038,80.667,6.831
0.087,0.97,0.069,-1.648,-4.578,3.479,81.577,6.674
aX,aY,aZ,gX,gY,gZ,Roll,Pitch
0.07,0.955,-0.059,-2.563,1.221,7.019,84.313,4.731
0.084,0.996,0.082,1.465,2.563,-1.16,84.176,4.962
0.073,0.98,0.095,0.916,-0.061,0.488,84.638,4.611
0.113,0.977,0.102,3.967,1.648,-3.296,84.076,4.98
0.093,0.973,0.093,3.296,0.793,-0.671,82.456,5.277
0.092,0.964,0.097,2.808,0.549,0,82.163,5.425
0.096,0.976,0.096,2.625,0.916,-0.183,81.916,5.757
0.095,0.965,0.086,1.221,0.427,0.671,82.24,5.508
0.099,0.971,0.103,0.061,0.183,1.404,82.079,5.586
0.088,0.973,0.155,0.671,-4.333,4.089,81.519,5.512
0.146,0.951,0.18,-1.587,-40.833,-1.77,80.061,6.261
0.118,0.969,0.135,-1.526,-57.617,-5.371,79.319,6.584
0.124,0.956,0.108,0.305,-70.374,-12.146,78.995,6.979
0.136,0.993,0.145,-3.418,-82.52,-10.803,78.706,7.634
0.196,0.972,0.086,-3.54,-108.521,-10.01,79.168,8.339
0.175,0.963,0.036,-8.057,-93.506,-5.798,79.298,9.186
0.051,0.968,-0.014,-12.634,-82.52,-3.662,81.059,8.137
-0.023,0.951,-0.082,-7.629,-32.288,0.244,84.065,5.922
0.036,0.998,0.041,6.104,0.793,0.488,86.456,3.533
0.042,0.979,0.066,-1.648,0.977,0.305,88.418,1.574
0.043,0.98,0.067,0.854,0.732,-0.244,88.03,1.449
0.037,0.981,0.067,2.441,0.488,0.122,85.826,2.3
0.041,0.981,0.068,2.014,0.793,0.061,85.43,2.376
0.042,0.976,0.07,3.113,0.916,0,85.378,2.364
0.045,0.994,0.061,4.761,1.77,-0.122,85.445,2.379
0.048,0.976,0.084,3.601,1.648,-0.732,85.14,2.539
0.051,0.98,0.054,4.517,3.113,-0.916,85.236,2.682
-0.007,1.042,-0.035,11.414,28.259,-3.052,86.935,1.948
0.044,0.978,0.017,14.404,64.087,-0.977,87.389,1.955
0.107,0.937,0.099,13.733,67.2,5.371,86.556,2.828
0.133,0.999,0.148,13.733,56.274,8.911,84.812,4
0.154,0.997,0.191,21.729,46.387,7.263,80.838,6.343
0.1,0.917,0.081,14.16,49.805,8.484,79.465,7.236
0.143,0.921,0.138,26.611,76.294,18.005,78.658,7.79
0.153,0.937,0.196,20.935,66.101,15.198,77.764,8.194
0.113,0.978,0.212,5.31,56.274,12.024,77.851,7.624
0.162,0.926,0.303,8.545,42.847,9.521,74.773,8.435
0.158,0.866,0.292,-1.77,0.122,0.427,72.587,8.691
0.1,1.028,0.197,-10.925,3.357,-2.93,73.323,7.735
0.101,0.978,0.194,2.93,8.423,2.991,73.632,7.569
0.095,1,0.155,-3.113,1.892,0,76.175,6.534
0.126,0.953,0.159,3.479,2.991,-1.038,78.281,5.977
0.122,0.964,0.155,-2.625,1.16,2.502,78.428,6.403
0.104,0.937,0.132,-6.287,-3.174,1.282,79.002,6.533
aX,aY,aZ,gX,gY,gZ,Roll,Pitch
0.116,0.987,0.13,-2.563,-6.042,10.925,79.071,6.869
0.104,0.973,0.125,10.193,14.648,-5.493,79.705,6.528
0.008,0.979,0.13,3.967,-2.808,0.061,80.995,4.858
0.111,0.966,0.148,3.845,1.282,0.244,80.812,4.925
0.099,0.972,0.156,2.563,1.282,1.282,80.578,4.69
0.103,0.972,0.145,2.563,1.099,0.244,80.318,4.678
0.104,0.976,0.151,2.93,0.671,-0.183,79.333,6.067
0.105,0.967,0.154,2.197,1.038,0,79.317,5.975
0.106,0.965,0.153,1.404,0.793,0.366,79.277,6.093
0.104,0.96,0.157,-1.709,0.244,1.16,79.106,6.114
0.1,0.959,0.144,-0.61,-3.845,0.977,79.182,6.072
0.142,0.954,0.237,8.728,-22.888,-1.892,77.854,6.613
0.139,0.959,0.218,-4.028,-52.49,-4.089,76.806,7.081
0.145,1.004,0.161,-8.911,-79.956,-9.155,76.583,7.592
0.093,0.981,0.047,-2.197,-86.365,-11.536,77.802,7.487
0.112,1.001,0.124,-15.259,-100.891,-7.141,79.429,7.009
0.135,0.981,-0.015,-1.831,-108.398,-7.629,81.692,6.95
0.066,0.976,0.036,-13.306,-77.881,-0.977,83.506,5.872
0.025,0.974,-0.029,-2.991,-49.133,-1.953,84.823,4.899
-0.008,1.037,-0.092,-0.122,-12.085,-0.61,86.545,3.131
0.038,0.955,0.112,8.423,0.549,-2.258,88.215,1.743
0.037,0.982,0.075,2.869,1.038,0.183,88.364,1.33
0.04,0.978,0.076,2.563,0.916,0.122,87.082,1.548
0.036,0.978,0.079,1.282,0.916,-0.122,84.507,2.212
0.051,0.981,0.079,3.967,1.77,-0.183,84.894,2.39
0.015,0.966,0.056,3.479,5.981,-0.488,85.266,2.074
0.03,0.97,0.07,2.502,7.69,-1.282,85.387,1.941
0.023,1.001,-0.017,9.338,34.546,-2.808,86.742,1.743
0.06,0.937,0.087,14.343,48.096,3.662,86.538,1.902
0.094,1.007,0.143,12.024,55.786,5.981,84.885,3.028
0.113,0.964,0.146,15.686,50.903,7.568,83.281,4.229
0.121,0.948,0.162,12.634,55.237,9.827,80.253,5.685
0.114,1.008,0.159,7.996,66.101,9.583,79.153,6.332
0.151,0.959,0.151,18.188,73.486,17.944,78.428,7.226
0.194,0.918,0.177,17.09,79.956,21.912,77.198,8.477
0.134,0.924,0.159,4.272,78.979,18.555,77.035,8.714
0.241,0.974,0.361,2.808,70.862,15.564,73.577,10.533
0.068,0.632,0.257,-9.216,-6.714,-1.404,71.601,10.088
0.101,0.962,0.171,-1.77,-0.854,-0.671,72.627,8.533
0.128,0.979,0.15,0.244,-2.441,-0.427,73.044,8.328
0.075,0.988,0.133,1.526,0,-0.671,77.314,5.836
0.113,0.969,0.151,2.319,0.671,-0.244,79.333,6.025
0.124,0.941,0.154,2.014,1.953,0.122,79.281,6.399
0.112,0.933,0.151,-1.953,-0.916,1.282,79.266,6.246
0.073,1.011,0.288,-4.7,-0.366,-1.099,77.479,6.142
aX,aY,aZ,gX,gY,gZ,Roll,Pitch
-0.021,1.035,0.413,-12.756,-14.893,6.47,68.201,-1.06
0.043,1.04,0.154,13.123,19.958,-2.197,74.683,0.602
0.108,0.968,0.173,3.601,3.906,-9.949,76.111,2.382
0.1,0.95,0.198,6.897,-0.183,-2.319,76.39,3.208
0.106,0.953,0.206,4.883,0.671,-1.77,78.243,5.12
0.123,0.943,0.226,5.554,1.587,-0.183,76.52,6.393
0.115,0.96,0.203,1.465,0.183,0.061,76.074,6.505
0.121,0.946,0.224,-2.441,0.244,3.113,75.585,6.818
0.116,0.979,0.204,-18.25,-14.282,5.615,75.637,6.914
0.138,0.909,0.223,3.662,-53.101,-13.733,75.448,7.191
0.139,0.991,0.211,0.305,-57.312,-13.062,75.292,7.481
0.177,0.936,0.237,-3.54,-73.608,-17.212,74.694,8.297
0.163,0.952,0.22,-13.062,-94.543,-17.212,74.042,9.021
0.174,0.958,0.099,-13.306,-90.82,-14.404,75.299,9.482
0.103,0.959,0.13,1.709,-73.425,-12.939,76.379,9.064
0.068,0.983,0.071,-7.996,-64.148,-6.348,79.325,7.436
0.08,0.921,0.188,23.804,3.296,-7.202,80.392,6.285
0.069,0.981,0.161,0.427,1.099,0.366,80.599,4.694
0.073,0.966,0.172,1.343,0.977,0.061,80.28,4.239
0.085,0.948,0.186,2.93,1.892,0.183,78.569,4.504
0.076,0.965,0.161,3.357,1.16,-0.549,79.08,4.414
0.078,0.976,0.18,3.235,3.174,-0.61,78.767,4.556
0.1,0.966,0.188,14.465,10.559,1.953,78.404,4.953
0.093,0.982,0.141,-2.136,26.001,2.38,79.033,5.036
0.091,0.976,0.133,5.371,42.48,8.24,79.314,5.234
0.115,0.958,0.193,15.991,52.307,13,78.846,5.784
0.127,0.92,0.263,5.249,57.129,18.311,77.593,6.227
0.154,0.948,0.225,10.803,70.007,22.278,76.001,7.138
0.168,0.939,0.217,-3.418,84.106,24.109,74.282,8.288
0.139,0.952,0.215,-2.991,89.355,23.254,73.809,8.637
0.21,0.972,0.224,0.427,81.726,18.555,73.807,9.72
0.194,0.865,0.434,-7.935,11.841,5.737,70.765,10.367
0.072,1.009,0.074,-17.822,-9.155,-0.793,73.446,8.923
0.108,0.957,0.137,5.066,0.244,-0.854,74.611,8.508
0.1,0.986,0.115,3.418,0.671,-0.488,76.797,6.947
0.1,0.97,0.122,1.465,0.183,-0.61,81.494,5.493
0.1,0.99,0.094,-0.549,-0.183,1.953,80.971,5.922
0.1,0.977,0.109,0.061,-0.366,0.977,81.385,5.788
0.104,0.907,0.172,0.549,0.366,2.136,80.542,5.95
aX,aY,aZ,gX,gY,gZ,Roll,Pitch
0.11,0.962,0.102,-0.366,-4.211,-1.16,80.642,6.124
0.088,1.028,0.243,16.907,16.235,-5.615,79.121,5.857
0.103,0.981,0.097,-3.174,-0.244,0.793,79.254,5.891
0.106,0.958,0.105,1.526,2.441,0.61,80.158,5.856
0.116,0.978,0.114,3.052,4.517,-0.549,80.008,5.91
0.092,0.958,0.13,3.662,1.282,0.183,81.047,6.093
0.112,0.982,0.117,0.854,1.16,0.366,80.746,6.218
0.108,0.966,0.137,-3.296,-0.671,4.578,80.391,6.235
0.115,0.98,0.111,0.427,-4.639,1.648,80.445,6.216
0.131,0.975,0.105,-1.465,-78.43,-11.719,80.37,6.758
0.158,0.973,0.085,3.906,-78.308,-13.489,80.181,7.442
0.17,0.973,0.148,-8.301,-91.736,-14.526,79.418,8.308
0.17,0.945,0.085,-10.925,-96.436,-8.301,78.896,9.187
0.164,0.986,0.088,-20.691,-92.285,-7.202,78.66,9.644
0.035,0.978,0.003,-2.136,-71.167,-3.967,80.788,7.883
0.048,0.994,-0.074,-9.521,-44.617,-2.441,83.71,6.108
0,1.001,0.025,23.987,6.409,-2.93,86.379,3.568
0.072,0.992,0.085,-5.676,0.244,3.357,87.7,2.23
0.076,0.973,0.097,2.625,0.854,-0.916,86.579,2.827
0.068,0.977,0.095,3.479,0.916,-0.305,84.627,3.118
0.061,0.985,0.083,4.333,0.854,-0.916,83.413,4.015
0.082,0.98,0.136,-5.31,7.08,1.038,82.703,4.176
0.075,0.93,0.098,8.362,3.723,0.122,82.622,4.204
0.047,0.966,-0.027,2.563,4.517,1.648,84.195,3.917
0.061,0.971,-0.099,41.626,73.73,8.179,85.739,3.947
0.162,0.871,0.198,38.452,88.623,19.043,84.126,5.274
0.179,0.961,0.368,0.977,64.026,14.343,80.53,6.755
0.134,0.922,0.288,4.395,47.241,15.259,76.036,8.031
0.154,0.99,0.325,13.489,43.762,12.573,70.343,9.109
0.106,0.783,0.233,8.667,38.696,11.414,69.817,8.458
0.115,0.976,0.217,-1.953,51.514,13.062,72.194,7.576
0.163,1.033,0.292,16.113,44.495,12.939,72.461,7.787
aX,aY,aZ,gX,gY,gZ,Roll,Pitch
0.005,1.006,-0.061,-2.197,-8.545,1.953,86.507,0.305
0.01,0.99,-0.052,3.723,10.62,0.122,86.716,0.451
0.022,0.966,-0.055,5.737,0.916,1.038,86.666,0.721
0.023,0.984,-0.057,1.221,0.488,0.671,86.62,0.876
0.029,0.961,-0.064,-2.747,3.418,-0.977,86.437,1.228
0.04,0.985,0.028,-2.38,-32.349,2.075,87.269,1.664
0.045,0.942,-0.009,7.568,-60.364,2.502,87.485,2.024
0.054,0.918,-0.039,-3.54,-63.293,7.751,87.185,2.517
0.056,0.975,-0.104,0.366,-69.641,-0.366,86.547,2.917
0.063,1.011,-0.051,-14.771,-69.702,7.812,85.576,3.242
0.088,0.952,-0.141,-11.597,-69.092,10.925,83.717,3.858
0.036,0.912,-0.177,2.991,-72.815,12.695,82.145,3.593
0.054,1.013,-0.191,0.244,-59.021,9.766,81.097,3.513
0.014,0.964,-0.257,-7.202,-23.621,4.211,78.391,2.808
0.013,0.953,-0.19,4.272,-2.869,1.282,77.915,1.713
0.018,0.964,-0.134,-1.099,0.061,0.549,78.71,1.432
0.018,0.965,-0.127,0.671,0.244,0.854,79.532,0.939
0.019,0.968,-0.13,-1.221,-0.122,0.732,81.353,1.015
0.019,0.971,-0.13,0.671,0.488,0.854,82.245,1.096
0.017,0.968,-0.126,2.197,0.427,0.854,82.367,1.081
0.018,0.966,-0.124,1.038,0.366,0.732,82.419,1.069
0.018,0.969,-0.125,0.488,0.427,0.671,82.503,1.047
0.019,0.969,-0.123,0.916,0.732,0.854,82.594,1.041
0.012,0.972,-0.129,4.822,1.16,1.465,82.56,0.972
0,0.971,-0.196,2.502,19.836,-1.953,81.558,0.706
0.013,1.003,-0.147,13.55,46.997,-5.188,81.32,0.638
0.049,0.943,-0.118,19.958,62.683,-3.723,81.293,1.085
0.063,1.003,-0.028,2.686,75.806,-2.38,82.649,1.818
0.076,0.953,-0.037,1.404,64.636,-1.892,84.337,2.943
0.061,0.999,-0.037,-0.366,64.148,-1.77,85.122,3.654
0.063,0.968,-0.044,0.61,60.913,-1.953,85.609,3.841
0.052,0.991,-0.036,1.16,53.528,-1.465,85.679,3.689
0.077,0.943,-0.047,-3.723,41.504,-0.854,85.569,3.715
0.025,0.989,-0.064,0.305,35.339,-0.366,85.735,3.195
0.05,0.98,0.079,7.751,18.982,-0.488,86.847,2.988
0.013,1.001,-0.08,1.953,1.038,1.709,87.08,2.414
0.02,1.001,-0.108,-12.207,-4.272,1.465,87.06,1.56
aX,aY,aZ,gX,gY,gZ,Roll,Pitch
0.024,1.069,-0.087,-2.38,-6.531,2.38,86.849,1.508
0.012,1.004,-0.083,5.371,6.836,2.136,84.885,0.962
0.022,0.967,-0.069,1.648,0.793,0.916,84.966,1.097
0.02,0.963,-0.072,-3.784,3.601,-0.61,85.416,1.102
0.162,0.996,0.092,16.479,-17.395,3.845,86.329,3.13
0.052,0.923,-0.043,-4.456,-42.053,3.174,85.974,3.789
0.066,1.026,-0.021,5.127,-60.608,5.493,85.586,4.367
0.079,0.965,-0.021,5.005,-71.472,5.31,84.767,5.232
0.077,0.963,-0.026,3.54,-89.111,6.165,85.645,4.029
0.102,1.05,-0.116,-21.912,-91.187,9.949,84.677,4.617
0.056,0.961,-0.154,-9.827,-73.792,10.193,83.522,4.548
0.062,1.001,-0.139,-1.892,-62.439,9.827,82.445,4.249
0.02,0.969,-0.236,-3.357,-39.856,6.775,80.191,3.414
-0.001,0.953,-0.226,-2.625,-6.042,1.16,78.837,1.989
0.018,0.969,-0.135,-5.005,-0.671,0.244,79.203,1.435
0.019,0.97,-0.133,1.221,0.549,0.854,79.262,0.817
0.017,0.968,-0.13,1.953,0.488,0.854,80.774,0.771
0.016,0.963,-0.127,2.686,0.671,0.916,82.186,1.017
0.016,0.965,-0.127,0.854,0.183,0.671,82.304,0.991
0.016,0.971,-0.128,-0.305,0.183,0.61,82.393,0.954
0.017,0.967,-0.128,1.587,0.488,0.732,82.425,0.96
0.02,0.975,-0.127,2.38,0.427,0.977,82.452,1.017
0.017,0.967,-0.11,5.066,0.916,1.709,82.697,1.034
0.025,0.95,-0.163,5.432,12.451,-0.732,82.129,1.173
0.024,0.952,-0.161,7.507,23.682,-2.075,81.599,1.28
0.056,0.971,-0.099,26.978,48.95,-3.906,81.893,1.82
0.021,0.949,-0.121,4.272,52.002,-2.197,81.692,1.877
0.063,1.003,-0.05,4.822,68.481,-2.258,83.22,2.415
0.083,0.948,-0.08,0.549,76.172,-1.648,83.89,3.292
0.084,1.012,-0.057,-4.15,76.904,-1.038,84.204,3.67
0.064,0.965,-0.04,1.343,73.608,-1.709,84.588,4.286
0.09,0.992,0.018,-1.282,57.129,-0.916,84.768,4.69
0.039,0.944,-0.038,1.282,46.57,-0.916,85.599,4.054
0.037,0.985,0.051,-5.127,22.461,0.183,86.606,3.39
0.012,1.031,-0.083,-7.935,1.465,0.122,87.311,2.578
0.018,0.988,-0.065,-0.366,0.854,0.549,87.5,1.54
0.021,0.988,-0.055,-3.479,0.244,0.671,87.481,1.259
0.024,0.978,-0.065,-1.099,-0.244,0.183,86.015,1.077
0.022,0.979,-0.066,0,-1.831,-0.366,86.162,1.237
0.027,0.977,-0.067,-1.77,-3.235,-0.061,86.073,1.366
0.029,0.969,-0.067,1.16,-0.183,0.488,85.843,1.499
aX,aY,aZ,gX,gY,gZ,Roll,Pitch
0.028,0.979,-0.074,4.7,-5.005,-0.244,85.695,1.556
0.019,0.969,-0.073,4.578,7.568,3.357,85.597,1.515
0.03,0.964,-0.054,0.671,0.671,0.61,85.749,1.567
0.031,0.959,-0.074,-0.488,1.465,0.732,85.631,1.6
-0.006,0.93,-0.095,2.625,-6.348,0.977,85.429,1.102
0.045,0.956,-0.005,6.714,-7.019,1.648,86.252,1.506
0.046,0.975,-0.013,0.244,-25.085,2.197,86.696,1.733
0.029,0.982,-0.111,0,-27.527,2.014,86.253,1.693
0.026,0.965,-0.03,2.258,-28.198,2.197,86.815,2.156
0.07,0.985,0.011,7.202,-46.936,3.479,86.744,2.497
0.065,0.96,-0.006,7.996,-62.317,3.479,86.574,2.788
0.051,0.957,-0.05,-2.197,-76.66,2.808,86.677,3.132
0.068,0.995,-0.029,-18.555,-76.721,4.089,86.124,3.717
0.061,0.946,-0.104,-14.648,-77.332,8.179,85.407,3.629
0.045,0.956,-0.159,-7.019,-67.932,10.681,83.934,3.328
0.017,0.933,-0.261,0.427,-46.082,8.545,81.318,2.819
0.018,0.958,-0.243,-1.465,-9.094,2.563,78.385,2.083
0.017,0.975,-0.14,5.554,0.916,1.221,78.055,1.411
0.016,0.968,-0.135,4.944,0.977,1.038,78.47,0.994
0.016,0.964,-0.128,0,0.122,0.488,80.462,0.971
0.015,0.971,-0.132,-0.549,0.122,0.549,82.096,0.938
0.017,0.974,-0.133,2.258,0.61,0.977,82.192,0.947
0.016,0.968,-0.13,3.052,0.732,0.854,82.265,0.94
0.016,0.968,-0.129,1.221,0.305,0.732,82.253,0.941
0.016,0.969,-0.128,1.099,0.427,0.549,82.296,0.954
0.018,0.979,-0.117,5.249,0.183,1.526,82.534,0.965
0.011,0.969,-0.205,8.606,23.987,-2.136,81.47,0.887
0.044,0.988,-0.169,15.442,50.903,-4.883,80.901,1.293
0.065,0.936,-0.084,15.076,65.369,-2.869,81.321,2.015
0.073,1.057,-0.013,0.671,77.454,-2.075,82.667,2.769
0.1,0.961,-0.004,6.958,73.181,0.549,84.349,4.079
0.063,1.013,-0.047,-3.54,71.167,-0.732,85.164,4.338
0.084,0.981,0.014,3.662,65.125,-1.892,85.383,4.561
0.062,1.001,-0.053,-3.479,53.833,-0.366,85.35,4.465
0.04,0.983,-0.055,2.93,42.358,-0.549,85.89,3.578
0.034,0.992,0.049,4.15,31.067,-0.183,86.764,3.169
0.007,0.993,-0.072,-13.855,-0.183,0.549,87.214,2.051
0.019,0.977,-0.062,-1.953,0.427,0.488,87.508,1.444
0.017,0.977,-0.059,0.671,0.305,0.305,87.629,1.113
0.02,0.975,-0.06,1.038,0.305,0.61,86.202,0.922
0.017,0.98,-0.07,0.427,0.854,0.488,86.172,1.071
0.027,0.965,-0.066,-2.625,-3.54,0.366,86.069,1.192
0.023,0.987,-0.083,-2.441,-5.676,-0.183,85.714,1.276
aX,aY,aZ,gX,gY,gZ,Roll,Pitch
0.017,0.97,-0.092,2.502,-3.784,0.732,85.273,1.234
-0.007,0.978,-0.095,0.488,6.836,2.075,84.998,0.884
0.025,0.962,-0.068,1.587,0.549,0.732,84.974,0.86
0.025,0.976,-0.075,0.427,0.488,0.61,85.07,0.886
0.022,0.967,-0.068,2.136,0.854,0.793,85.402,0.961
0.003,0.972,-0.116,-6.836,-4.761,0.488,85.056,1.111
0.03,0.967,-0.025,3.906,-10.559,1.648,85.646,1.182
0.05,0.942,0.014,3.845,-28.625,2.441,86.7,1.565
0.061,0.943,-0.044,-8.24,-62.195,1.282,86.655,2.148
0.045,1.003,-0.069,3.052,-57.556,3.662,86.684,2.757
0.051,0.959,-0.061,3.296,-53.65,3.235,86.116,3.075
0.055,0.994,-0.056,0.488,-53.65,3.479,85.412,3.113
0.044,0.949,-0.081,-7.69,-54.688,4.761,85.156,2.862
0.04,0.941,-0.111,-5.371,-46.631,5.188,84.602,2.829
0.038,0.953,-0.114,-2.197,-41.565,5.554,84.007,2.627
0.042,0.977,-0.138,-7.874,-38.94,6.592,82.943,2.439
0.04,0.962,-0.171,-3.235,-35.217,6.165,81.73,2.366
0.037,0.96,-0.142,0.916,-28.931,5.676,81.348,2.314
0.009,0.958,-0.208,1.587,-14.587,3.174,80.118,1.887
0.021,0.968,-0.137,9.399,0.854,0.793,80.172,1.574
0.019,0.967,-0.13,2.38,0.549,0.977,80.813,1.271
0.019,0.967,-0.129,1.038,0.366,0.854,81.054,1.001
0.018,0.969,-0.128,1.16,0.427,0.671,82.212,1.128
0.018,0.971,-0.128,1.526,0.61,0.916,82.348,1.097
0.018,0.967,-0.126,2.014,0.488,0.854,82.412,1.07
0.018,0.972,-0.129,1.038,0.488,0.793,82.42,1.058
0.046,0.975,-0.183,-7.019,14.343,-2.014,81.588,1.457
0.033,0.964,-0.174,3.967,28.931,-2.502,80.882,1.664
0.006,0.962,-0.135,11.597,47.974,-3.479,80.767,1.499
0.048,0.988,-0.074,3.601,57.678,-2.258,81.5,1.924
0.062,0.994,-0.042,2.319,62.073,-2.136,83.424,2.166
0.062,0.963,-0.085,1.648,71.838,-2.197,84.441,2.597
0.077,1.001,-0.054,-1.404,80.811,-2.136,84.842,3.595
0.091,0.957,-0.021,0.183,69.397,-2.075,84.819,4.251
0.057,0.966,-0.04,0.061,47.791,-1.404,84.863,4.211
0.039,0.975,-0.067,-3.418,43.274,-1.282,85.3,3.862
0.053,0.986,0.04,5.859,29.724,-0.854,86.238,3.527
0.028,0.951,-0.07,-9.827,0.427,0.488,86.7,2.604
0.022,0.976,-0.07,-1.282,0.183,0.305,86.776,2.079
0.017,0.978,-0.065,0.977,0.061,0.549,86.999,1.763
0.016,0.98,-0.072,-1.953,0.854,0.549,85.749,1.226
0.02,0.979,-0.073,1.221,-2.38,-0.854,85.763,1.102
0.028,0.976,-0.083,0.122,-2.563,-0.366,85.549,1.19
aX,aY,aZ,gX,gY,gZ,Roll,Pitch
0.022,0.986,-0.099,1.282,-9.705,0.183,85.062,1.253
0.025,1.005,-0.087,-3.54,9.399,3.967,84.848,1.365
0.026,0.973,-0.085,2.319,0.671,0.977,84.655,1.453
0.024,0.976,-0.082,0.854,0.244,0.61,84.69,1.388
0.017,0.993,-0.065,-0.793,0.854,0.61,85.188,1.314
0.126,0.921,-0.046,12.024,-7.996,0.122,84.989,2.846
0.042,0.955,-0.037,2.441,-32.41,3.113,85.376,3.102
0.085,1.007,-0.036,1.099,-53.101,3.479,85.171,3.986
0.071,1.018,0.035,10.193,-76.721,4.333,85.087,4.756
0.065,1.031,-0.056,-8.057,-88.013,5.92,86.017,3.75
0.084,0.964,-0.084,9.155,-89.844,4.944,85.224,4.334
0.058,0.871,-0.132,-4.639,-78.003,5.31,84.632,4.083
0.08,1.02,-0.128,-18.738,-59.509,6.897,82.779,4.202
0.015,0.998,-0.135,-0.427,-42.725,6.958,82.104,3.506
-0.002,0.945,-0.201,-0.244,-13.245,2.686,80.889,2.243
0.016,0.978,-0.119,3.54,1.038,1.282,81.444,1.58
0.019,0.968,-0.116,2.136,0.244,0.549,81.62,0.701
0.02,0.969,-0.114,0.61,0.244,0.671,81.852,0.771
0.02,0.972,-0.116,0.427,0.183,0.671,83.096,1.095
0.021,0.97,-0.116,1.709,0.305,0.793,83.107,1.176
0.021,0.97,-0.114,0.793,0.305,0.671,83.132,1.211
0.019,0.972,-0.112,1.16,0.244,0.61,83.162,1.194
0.019,0.972,-0.113,1.709,0.488,0.732,83.199,1.167
0.018,0.976,-0.114,2.197,0.671,0.854,83.249,1.111
0.01,0.998,-0.206,-6.409,11.475,-1.526,82.019,0.948
0.043,0.958,-0.176,9.705,38.696,-3.479,81.04,1.299
0.033,0.951,-0.154,17.944,65.369,-3.845,80.379,1.521
0.078,0.989,-0.063,1.709,68.298,-2.441,80.944,2.393
0.076,0.959,-0.048,-0.061,71.045,-2.319,82.645,3.396
0.076,0.968,-0.084,0.916,68.115,-2.197,83.536,3.889
0.06,0.979,-0.058,2.075,70.496,-2.319,84.35,4.25
0.053,0.964,-0.047,-0.977,59.387,-1.831,84.745,3.906
0.044,0.967,-0.048,1.953,44.128,-1.221,85.1,3.419
0.039,0.985,-0.047,-3.906,34.973,-0.916,85.894,2.859
0.061,0.992,0.063,12.024,12.573,-0.488,86.899,2.874
0.014,0.979,-0.064,6.592,0.488,0.671,87.303,2.3
0.023,0.968,-0.067,1.526,0.305,0.61,87.388,1.993
0.023,0.969,-0.066,-0.488,0.427,0.488,87.358,1.761
0.021,0.976,-0.07,-3.235,1.221,-0.427,85.895,1.181
0.025,0.977,-0.087,-1.404,-1.343,0.427,85.528,1.35
0.027,0.973,-0.093,2.93,-3.784,-1.587,85.163,1.415
aX,aY,aZ,gX,gY,gZ,Roll,Pitch
0.017,0.98,-0.102,3.418,-5.371,-0.427,84.691,1.328
0.02,0.984,-0.102,3.113,1.892,1.648,84.26,1.303
0.022,0.973,-0.079,1.892,1.099,1.892,84.374,1.262
0.026,0.977,-0.078,1.16,0.366,0.793,84.59,1.237
0.01,0.999,-0.035,-2.502,1.221,0.488,85.578,1.137
-0.039,0.916,0.009,11.108,-19.897,2.625,87.27,0.289
0.07,0.996,0.031,-0.061,-48.462,3.479,88.528,0.995
0.096,0.966,-0.081,2.075,-72.021,4.517,87.672,2.033
0.053,0.996,-0.085,1.038,-77.087,5.188,86.751,2.658
0.064,0.966,-0.093,-2.075,-69.275,4.456,84.714,4.112
0.059,0.976,-0.049,1.038,-68.726,4.7,84.005,3.966
0.064,0.971,-0.1,-8.911,-60.12,6.897,84.08,3.503
0.057,0.95,-0.111,-9.033,-56.946,8.85,83.662,3.601
0.035,0.958,-0.185,-1.404,-56.519,8.728,82.692,3.182
0.013,0.955,-0.245,-4.761,-17.395,3.723,80.193,2.49
0.013,0.969,-0.14,7.812,1.038,0.854,79.792,1.726
0.021,0.956,-0.128,3.174,0.305,1.038,79.64,1.194
0.021,0.97,-0.133,2.136,0.61,0.732,80.435,0.987
0.02,0.965,-0.125,2.014,0.244,0.732,82.167,1.09
0.021,0.969,-0.132,0.549,0.305,0.549,82.262,1.208
0.021,0.967,-0.13,1.221,0.305,0.61,82.253,1.212
0.02,0.969,-0.131,0,0,0.61,82.286,1.2
0.02,0.968,-0.13,1.282,0.122,0.427,82.23,1.208
0.02,0.967,-0.126,1.221,0.305,0.61,82.303,1.2
0.045,0.986,-0.173,-4.7,12.329,-1.221,81.671,1.535
0.01,0.982,-0.191,2.93,34.912,-3.601,80.88,1.371
0.057,0.97,-0.161,16.541,60.425,-5.615,80.351,1.896
0.076,1,-0.108,-2.075,76.416,-3.479,80.485,2.691
0.087,0.965,-0.078,-2.258,85.449,-3.418,81.513,3.325
0.105,0.998,-0.027,-0.916,80.872,-2.93,82.82,4.707
0.069,0.969,-0.068,-1.77,65.125,-2.441,83.626,4.896
0.049,0.969,-0.046,-1.587,55.786,-2.319,84.446,4.533
0.059,0.971,-0.052,0.183,43.823,-1.892,84.996,4.121
0.036,0.996,-0.062,-3.662,38.086,-1.648,85.42,3.11
0.073,0.904,-0.003,25.024,13.672,0.244,85.945,3.229
0.016,1.038,-0.1,-3.784,-0.488,0.244,85.818,2.696
0.02,0.97,-0.06,-4.944,-0.122,0.427,86.069,2.12
0.021,0.983,-0.103,-2.197,0.854,0.732,85.641,1.906
0.021,0.987,-0.091,-1.953,-0.793,0.732,84.789,1.114
0.024,0.97,-0.107,-3.296,-2.014,0.977,84.576,1.245
0.026,0.982,-0.116,-1.282,-4.211,0.305,83.788,1.328
0.028,0.978,-0.115,-1.831,-0.916,1.16,83.598,1.43
aX,aY,aZ,gX,gY,gZ,Roll,Pitch
0.021,0.966,-0.126,3.662,-5.066,0.671,83.066,1.438
0.025,0.991,-0.116,1.099,10.437,2.686,82.971,1.45
0.026,0.965,-0.098,7.385,0.916,1.099,83.198,1.458
0.025,0.974,-0.093,1.831,0.549,0.61,83.509,1.415
0.024,0.968,-0.107,-14.465,-0.61,0,83.766,1.45
0.03,0.998,-0.047,-6.165,-25.635,3.54,84.731,1.523
0.072,0.937,-0.021,8.606,-48.34,4.761,85.47,2.216
0.072,0.978,-0.065,2.197,-70.068,5.249,85.417,2.912
0.062,0.969,-0.06,4.272,-76.05,5.493,85.502,3.48
0.082,0.964,-0.075,1.892,-83.496,6.042,84.6,4.277
0.079,0.984,-0.104,8.24,-77.515,6.409,83.779,4.327
0.093,0.97,-0.145,-8.606,-76.172,8.972,82.704,4.628
0.043,0.968,-0.154,-11.658,-67.566,9.521,81.76,4.342
0.031,0.939,-0.274,-4.761,-39.246,6.775,79.441,3.588
0.014,0.965,-0.17,3.54,-1.343,1.099,78.756,2.635
0.022,0.98,-0.131,-0.427,-0.183,0.305,79.181,1.595
0.018,0.969,-0.121,3.113,0.854,0.854,79.703,1.231
0.018,0.969,-0.119,0.305,0.122,0.366,82.013,1.052
0.018,0.968,-0.119,0.793,0.427,0.671,82.731,1.123
0.018,0.968,-0.12,1.709,0.61,0.732,82.861,1.079
0.019,0.967,-0.121,-1.465,-0.122,0.305,82.852,1.09
0.019,0.97,-0.121,-0.183,0.061,0.488,82.82,1.104
0.022,0.98,-0.132,6.775,1.404,2.136,82.652,1.157
0.025,0.97,-0.151,7.385,25.33,-2.075,82.205,1.257
0.017,0.996,-0.137,9.766,43.579,-3.906,82.046,1.215
0.058,0.942,-0.102,9.705,56.458,-3.052,82.159,1.787
0.054,0.981,-0.081,2.197,61.768,-2.869,82.753,2.248
0.072,0.971,-0.092,-0.549,67.139,-2.747,83.287,2.935
0.061,0.976,-0.09,-0.916,68.848,-2.93,83.521,3.601
0.086,0.959,-0.057,0.183,70.496,-3.052,83.825,3.998
0.072,0.999,-0.05,1.77,57.678,-2.38,84.003,4.243
0.053,0.96,-0.043,-0.671,43.884,-1.953,84.682,3.978
0.042,1.006,-0.058,-5.127,31.372,-1.343,85.24,3.672
0.052,0.919,-0.014,20.02,21.973,-1.221,85.978,3.208
0.008,0.975,-0.072,-12.329,0.732,0.244,86.405,2.288
0.022,0.986,-0.101,-0.671,0.366,0.427,85.96,1.817
0.021,0.976,-0.097,-1.953,0.977,0.854,85.514,1.523
0.022,0.969,-0.104,-0.671,-2.197,0.122,84.418,1.064
0.028,0.968,-0.091,1.16,-0.977,-0.122,84.082,1.362
aX,aY,aZ,gX,gY,gZ,Roll,Pitch
0.029,0.963,-0.094,-0.549,-5.249,0.488,84.122,1.474
0.018,0.979,-0.094,2.93,1.953,1.648,84.175,1.432
0.023,0.971,-0.093,3.296,1.343,1.587,84.327,1.456
0.024,0.97,-0.086,1.16,0.488,0.793,84.419,1.395
0.024,0.977,-0.089,-0.916,0.366,0.488,84.526,1.312
0.024,0.953,-0.085,-4.7,1.099,0.061,84.598,1.405
0.041,0.989,-0.035,0.671,-24.048,2.747,85.354,1.66
0.072,0.949,-0.053,3.113,-36.377,3.235,85.448,2.382
0.084,0.997,-0.012,-1.221,-60.364,4.578,85.756,3.259
0.054,0.956,-0.093,-2.625,-72.815,5.371,85.344,3.697
0.083,1.026,-0.071,4.211,-78.064,6.653,84.584,4.271
0.065,0.98,-0.118,-9.338,-72.571,7.263,84.082,4.13
0.047,0.958,-0.165,-12.146,-72.083,10.62,82.559,3.617
0.066,0.962,-0.149,-5.737,-59.57,9.46,81.793,3.774
0.057,0.96,-0.225,-3.723,-59.204,10.864,79.764,3.432
0.005,0.942,-0.295,3.662,-21.057,5.066,77.445,2.553
0.015,0.964,-0.145,12.024,0.244,0.366,77.835,2.09
0.018,0.964,-0.14,2.747,0.549,0.854,78.064,1.395
0.02,0.968,-0.14,-0.244,0.122,0.61,79.351,0.858
0.019,0.967,-0.142,0.793,0.183,0.854,81.588,1.073
0.018,0.968,-0.141,-0.549,0.244,0.732,81.646,1.113
0.02,0.968,-0.141,0.427,0.122,0.61,81.63,1.142
0.02,0.967,-0.14,1.16,0.183,0.488,81.628,1.136
0.018,0.972,-0.141,2.258,0.61,0.793,81.654,1.117
0.001,0.986,-0.225,-4.639,11.658,-1.892,80.518,0.862
0.038,0.964,-0.211,2.869,41.748,-5.249,79.494,1.115
0.052,0.997,-0.169,6.592,66.101,-8.057,79.114,1.569
0.054,0.96,-0.117,11.169,78.552,-7.202,79.339,2.089
0.084,0.951,-0.094,2.808,75.378,-5.005,80.726,3.327
0.073,0.998,-0.058,0.061,70.862,-4.211,82.553,3.833
0.07,0.975,-0.055,0,57.678,-2.686,83.695,4.134
0.049,0.982,-0.075,0.305,49.927,-2.258,84.226,4.042
0.049,0.97,-0.071,2.747,41.26,-2.075,84.848,3.511
0.022,0.976,-0.094,-0.061,34.302,-1.648,84.877,2.771
0.022,0.98,-0.063,0.305,33.447,-1.709,85.117,2.055
0.036,0.91,-0.055,5.188,1.282,0.305,85.362,1.911
0.021,0.951,-0.078,-1.709,-0.061,0.427,85.397,1.502
0.02,0.973,-0.104,-7.446,0.183,0.61,85.251,1.472
0.023,0.968,-0.118,2.625,-1.648,0.732,84.455,1.492
0.03,0.966,-0.111,2.136,-2.808,-0.427,83.768,1.377
aX,aY,aZ,gX,gY,gZ,Roll,Pitch
0.015,0.956,-0.13,8.118,-9.216,-1.587,83.044,1.291
0.023,0.979,-0.118,-0.854,3.906,3.296,82.852,1.336
0.026,0.974,-0.12,0.305,0.732,1.038,82.83,1.383
0.025,0.973,-0.11,0.427,0.671,0.916,82.869,1.303
0.026,0.956,-0.119,-10.437,-0.061,0.061,82.994,1.472
0.089,1.012,-0.023,-3.296,-9.644,3.723,84.066,2.419
0.057,1.012,-0.055,-2.747,-35.767,4.944,84.729,2.843
0.036,0.934,-0.137,0.061,-46.692,5.31,84.263,3.028
0.032,0.991,-0.119,-0.122,-44.006,5.676,84.276,3.075
0.056,0.958,-0.087,1.099,-46.997,5.981,83.6,2.638
0.067,0.967,-0.079,8.85,-57.739,7.019,83.151,2.809
0.073,0.989,-0.118,-3.54,-72.266,9.155,83.238,3.319
0.072,1.029,-0.084,-11.536,-71.655,10.62,83.413,3.871
0.073,0.965,-0.145,6.226,-76.721,12.207,82.604,4.108
0.042,1.026,-0.284,-7.629,-58.777,9.827,80.338,3.67
-0.007,0.94,-0.277,1.038,-16.479,4.028,78.448,2.544
0.021,0.965,-0.135,5.798,0.671,0.488,77.695,1.854
0.019,0.966,-0.135,-0.183,0.183,0.427,77.937,1.072
0.017,0.969,-0.135,-0.122,0.244,0.671,79.917,0.741
0.017,0.965,-0.132,1.892,0.366,0.671,82.023,1.104
0.017,0.969,-0.133,0.122,0.122,0.488,82.061,1.044
0.019,0.968,-0.135,0.305,0.183,0.732,82.062,1.047
0.017,0.965,-0.132,3.113,0.549,0.793,82.09,1.05
0.017,0.973,-0.136,3.784,1.038,1.099,82.049,1.042
-0.008,0.936,-0.178,-3.296,8.057,-1.404,81.369,0.673
0.021,0.972,-0.211,-0.793,27.039,-2.625,80.277,0.704
0.054,0.968,-0.161,15.442,54.016,-4.761,79.822,1.238
0.038,0.982,-0.085,3.784,68.542,-3.54,80.534,1.54
0.058,0.976,-0.053,0.671,64.758,-2.563,82.145,2.5
0.061,0.968,-0.085,-1.099,67.505,-2.502,83.581,3.09
0.079,0.99,-0.098,-3.601,74.768,-2.93,84.195,3.435
0.084,0.967,-0.057,4.089,71.106,-2.808,84.054,4.124
0.067,0.971,-0.055,-3.235,56.885,-2.197,83.942,4.255
0.033,0.985,-0.052,-1.282,44.434,-1.953,84.602,3.827
0.052,0.924,-0.02,5.127,21.667,-1.038,85.574,3.497
0.015,0.985,-0.112,-8.911,0.122,0.366,85.704,2.466
0.022,0.97,-0.101,-1.16,0.305,0.488,85.427,1.794
0.02,0.971,-0.104,-0.793,0.122,0.427,84.749,1.607
0.023,0.944,-0.096,-7.08,0,0.122,83.797,1.176
0.021,0.971,-0.13,-3.662,0.061,0.488,83.5,1.26
0.023,0.963,-0.127,0.122,-2.319,-0.488,83.107,1.281
0.03,0.962,-0.14,1.648,-5.432,-0.549,82.546,1.429
aX,aY,aZ,gX,gY,gZ,Roll,Pitch
0.017,0.981,-0.148,3.113,-5.554,1.465,81.883,1.327
0.027,0.957,-0.123,5.005,0.793,1.16,81.936,1.422
0.025,0.98,-0.121,0.427,0.427,0.732,82.062,1.437
0.028,0.967,-0.12,1.953,0.244,0.732,82.365,1.415
0.029,0.974,-0.138,-6.226,0.61,0.671,82.458,1.584
0.068,0.924,-0.043,11.841,-13.977,2.197,83.362,2.21
0.05,0.948,-0.041,2.075,-43.518,4.333,84.245,2.616
0.055,0.986,-0.061,-2.441,-60.364,5.981,84.808,3.002
0.053,0.961,-0.116,5.432,-60.669,5.798,84.83,3.374
0.074,0.967,-0.059,2.625,-67.078,6.287,84.651,3.426
0.059,0.957,-0.111,-7.019,-72.144,6.409,83.766,3.544
0.05,0.955,-0.161,-9.46,-68.054,9.094,82.491,3.498
0.049,0.996,-0.139,-1.892,-57.556,9.033,82.29,3.408
0.065,0.937,-0.161,-0.549,-57.007,8.728,80.92,3.292
0.037,0.951,-0.218,2.014,-42.847,9.338,79.541,2.964
0.002,0.956,-0.227,1.282,-6.042,2.319,78.793,2.244
0.025,0.971,-0.135,-1.77,-0.061,0.793,78.844,1.905
0.021,0.969,-0.131,4.7,0.793,1.16,79.452,1.248
0.022,0.965,-0.125,-0.061,-0.061,0.61,80.855,1.021
0.023,0.969,-0.128,0.061,0.061,0.793,82.272,1.328
0.023,0.967,-0.128,1.831,0.366,0.61,82.359,1.306
0.022,0.967,-0.128,0.732,0.061,0.671,82.396,1.314
0.025,0.969,-0.128,1.892,0.244,0.732,82.343,1.355
0.026,0.974,-0.12,5.249,0.732,2.197,82.451,1.395
0.027,0.962,-0.204,6.226,20.874,-1.953,81.351,1.445
0.015,0.936,-0.203,16.785,57.739,-6.226,80.215,1.355
0.041,0.956,-0.123,6.287,80.139,-5.432,80.219,1.597
0.088,0.962,-0.09,3.845,82.947,-4.7,80.423,2.532
0.073,1.001,-0.062,-1.526,71.045,-3.418,82.231,3.206
0.067,0.969,-0.068,0.244,59.448,-2.747,83.589,3.946
0.051,0.996,-0.062,0.366,52.002,-2.38,84.221,4.059
0.048,0.981,-0.078,-0.305,40.771,-2.014,84.774,3.46
0.034,0.975,-0.087,1.831,34.729,-1.831,84.81,2.91
0.031,0.99,-0.08,0.671,32.104,-1.282,84.965,2.377
0.069,0.992,0.066,9.888,15.076,0.122,86.301,2.646
0.02,0.934,-0.064,9.033,0.122,0.854,86.686,2.264
0.023,0.968,-0.081,-0.61,-0.061,0.366,86.851,2.104
0.017,0.974,-0.083,1.831,0.549,0.549,86.928,1.912
0.021,0.962,-0.082,-1.099,-0.244,0.366,85.218,1.215
0.019,0.983,-0.092,-1.892,-0.488,0.244,84.887,1.183
0.025,0.964,-0.091,1.587,-1.404,0.244,84.725,1.212
0.025,0.971,-0.094,-0.427,-1.953,0.061,84.545,1.321
0.031,0.972,-0.107,-0.244,-1.648,0.061,84.173,1.451