aX,aY,aZ,gX,gY,gZ,Roll,Pitch

0.320,0.912,0.269,-0.610,3.052,4.822,65.385,18.577
0.394,0.999,0.332,6.226,-2.625,9.827,63.965,19.615
0.505,1.077,0.423,20.081,-7.690,28.870,61.947,21.099
0.474,1.061,0.463,25.574,-14.771,61.584,60.902,21.428
0.235,1.038,0.414,49.866,-35.400,67.383,61.242,19.739
-0.016,0.927,0.421,45.837,-69.946,44.250,62.937,15.067
-0.135,0.852,0.350,72.815,-92.407,23.926,65.846,7.544
-0.200,0.808,0.412,87.036,-112.366,8.301,66.175,-1.680
-0.294,0.635,0.460,133.606,-128.845,-4.639,61.287,-10.122
-0.581,0.433,0.508,165.894,-124.878,-26.855,52.263,-20.541
-0.733,0.145,0.380,160.583,-104.187,-44.434,38.695,-34.008
-0.804,0.171,0.382,131.409,-90.820,-54.565,24.993,-47.442
-0.922,0.247,0.341,95.215,-80.811,-52.979,16.145,-58.072
-0.929,0.247,0.421,57.556,-71.289,-43.396,12.294,-63.000
-0.910,0.076,0.298,60.059,-67.139,-40.405,10.895,-65.548
-0.993,0.126,0.181,55.969,-56.213,-44.189,9.979,-69.243
-1.037,0.286,0.099,35.278,-45.532,-55.542,10.417,-72.237
-0.932,0.413,0.016,18.311,-46.021,-77.759,12.958,-74.429
-0.527,0.495,-0.035,8.423,-32.593,-91.919,20.680,-68.904
-0.651,0.537,-0.092,-4.944,-14.404,-56.152,28.819,-61.180
-0.718,0.645,-0.067,-18.433,-4.578,-21.545,36.413,-53.434
-0.705,0.675,-0.022,-1.404,1.953,-12.085,42.024,-47.756
-0.715,0.765,-0.041,5.310,2.441,-5.432,43.132,-46.674
-0.707,0.724,-0.045,6.165,3.418,1.221,44.570,-45.320
-0.715,0.701,-0.032,5.676,3.784,6.531,45.182,-44.749
-0.725,0.691,-0.016,3.479,3.540,7.629,45.140,-44.799
-0.710,0.666,-0.037,-3.967,4.578,4.333,44.188,-45.752
-0.627,0.599,-0.052,6.409,14.832,20.874,43.679,-46.249
-0.637,0.553,-0.015,-0.488,31.494,58.777,42.872,-47.067
-0.736,0.631,0.044,-28.992,38.635,72.327,42.096,-47.889
-0.706,0.520,-0.009,-30.579,64.575,84.351,40.401,-49.595
-0.906,0.415,0.042,-46.082,80.200,86.121,35.362,-54.620
-0.894,0.186,0.201,-47.791,85.022,67.078,28.298,-61.313
-0.853,0.206,0.356,-68.604,85.144,51.025,21.258,-66.618
-0.861,0.396,0.420,-90.088,73.608,34.363,18.196,-65.834
-0.809,0.347,0.418,-111.328,71.838,26.917,17.095,-62.230
-0.728,0.510,0.481,-84.167,74.158,17.212,21.743,-55.648
-0.620,0.655,0.463,-160.645,79.834,9.033,28.551,-49.142
-0.556,0.703,0.534,-113.037,72.083,-17.212,33.785,-42.941
-0.421,0.959,0.519,-114.563,80.383,-36.865,42.684,-33.892
-0.203,1.002,0.550,-82.336,88.623,-44.922,50.460,-24.721
-0.144,0.857,0.398,-42.236,89.233,-46.143,55.735,-18.097
-0.072,0.826,0.330,-22.949,93.872,-46.448,61.445,-11.676
-0.015,0.917,0.346,-2.563,84.045,-43.335,64.984,-6.265
0.201,1.053,0.427,0.061,73.120,-38.879,67.662,-0.437
0.291,0.918,0.408,11.719,48.157,-25.513,67.164,5.765
0.347,0.949,0.412,15.564,29.663,-14.832,64.946,11.224
0.326,0.951,0.376,0.244,21.606,-3.418,62.700,15.523
0.282,0.798,0.303,0.366,9.583,0.183,61.668,17.668
0.416,0.815,0.329,18.677,18.860,-10.742,60.651,19.907
0.361,0.822,0.434,16.479,1.526,4.211,59.422,20.634
0.293,0.781,0.243,-11.658,-4.211,-2.441,59.651,21.284
0.383,0.890,0.259,-9.521,4.456,0.977,59.769,22.312
0.248,0.763,0.257,-7.629,6.836,2.747,61.693,20.325
0.281,0.877,0.263,-16.724,-1.892,3.357,64.493,19.165
0.287,0.849,0.238,-5.493,-4.822,-1.465,65.053,18.753
0.290,0.868,0.228,-10.254,-2.319,-0.977,66.191,17.532
0.332,0.871,0.213,-14.282,-1.221,0.427,66.356,18.329
0.309,0.908,0.170,-6.409,-3.357,0.061,66.997,18.703


0.361,0.802,0.410,11.047,6.470,9.888,64.484,19.761
0.465,0.844,0.452,6.775,2.563,15.747,60.688,21.928
0.471,0.985,0.549,2.808,-3.296,27.832,57.522,22.508
0.417,0.982,0.575,24.719,-5.981,45.044,54.030,22.577
0.344,0.910,0.479,34.546,-13.062,51.453,54.407,21.761
0.159,0.950,0.463,41.748,-40.100,42.358,56.959,17.734
0.039,0.868,0.472,47.729,-73.914,26.184,59.257,12.829
-0.104,0.770,0.474,58.533,-104.675,11.658,61.015,6.286
-0.218,0.680,0.485,88.257,-121.582,-0.977,59.846,-1.884
-0.421,0.527,0.492,134.338,-121.582,-20.203,54.241,-11.597
-0.620,0.295,0.498,141.907,-109.070,-60.730,43.688,-24.476
-0.719,0.171,0.546,131.165,-82.642,-55.542,30.608,-37.010
-0.766,0.186,0.627,90.820,-71.045,-46.997,19.529,-45.706
-0.891,0.054,0.532,96.069,-71.655,-39.795,10.756,-52.315
-0.903,0.075,0.508,65.125,-68.665,-39.978,7.006,-55.337
-0.991,0.111,0.336,38.513,-58.044,-39.490,5.978,-60.019
-1.004,0.122,0.192,32.349,-50.415,-47.546,5.048,-66.988
-0.924,0.176,0.119,24.780,-51.514,-58.899,6.910,-71.860
-0.843,0.348,0.100,20.447,-50.476,-72.083,11.168,-74.221
-0.747,0.460,0.120,0.244,-39.063,-83.923,17.266,-70.783
-0.639,0.460,0.122,11.780,-23.926,-88.440,24.382,-64.322
-0.617,0.581,0.127,-4.028,-12.451,-60.303,32.668,-56.165
-0.706,0.652,0.041,-15.137,-5.432,-16.113,38.153,-51.035
-0.764,0.672,0.034,-1.343,-1.709,1.343,40.741,-48.797
-0.757,0.660,0.017,4.883,-0.549,-2.258,41.946,-47.868
-0.743,0.639,0.018,7.446,0.549,-2.930,41.420,-48.536
-0.732,0.676,0.048,2.075,0.793,-0.732,41.433,-48.518
-0.738,0.655,0.019,0.671,2.869,1.404,41.502,-48.461
-0.682,0.609,-0.035,3.174,10.803,18.555,41.690,-48.301
-0.657,0.642,0.020,-2.441,31.067,56.641,42.579,-47.410
-0.637,0.541,0.006,-7.141,51.025,91.553,42.030,-47.969
-0.733,0.521,0.036,-42.908,68.542,110.779,40.479,-49.518
-0.905,0.264,0.226,-53.040,68.176,102.173,33.740,-55.851
-0.891,0.264,0.322,-65.369,64.026,76.782,26.280,-61.822
-0.857,0.160,0.335,-90.576,68.176,55.176,19.024,-65.838
-0.813,0.159,0.370,-83.313,64.514,36.987,12.953,-66.424
-0.819,0.163,0.407,-132.874,58.838,20.203,11.492,-64.446
-0.885,0.395,0.545,-140.381,53.589,-9.216,13.132,-60.948
-0.756,0.646,0.528,-143.738,56.458,-26.733,19.921,-54.940
-0.605,0.861,0.431,-101.624,53.589,-38.940,29.757,-47.453
-0.446,0.923,0.436,-71.960,64.758,-45.349,40.410,-38.154
-0.275,0.935,0.378,-42.114,78.918,-47.119,50.902,-28.699
-0.277,0.803,0.332,-19.836,83.618,-49.744,57.445,-22.566
-0.212,0.789,0.290,-1.953,80.566,-48.157,61.438,-17.946
-0.027,0.851,0.379,6.470,75.256,-40.955,64.799,-12.235
0.135,0.841,0.409,17.883,65.674,-37.292,66.031,-6.083
0.224,0.867,0.430,20.752,55.786,-41.077,65.688,1.872
0.329,0.917,0.412,3.052,39.368,-35.706,63.174,9.764
0.378,0.866,0.397,-3.540,20.508,-18.188,60.662,15.429
0.440,0.811,0.404,0.977,14.709,-9.705,58.282,19.675
0.420,0.792,0.436,19.592,5.859,-3.784,56.113,22.586
0.403,0.949,0.374,16.968,5.371,-7.507,56.069,23.471
0.375,0.800,0.320,8.057,-1.892,-3.174,56.192,23.967
0.356,0.754,0.363,0.122,0.061,3.174,56.803,23.268
0.358,0.852,0.358,-21.973,-0.793,3.845,58.489,22.293
0.433,0.895,0.437,12.024,-0.916,-3.601,57.274,22.832
0.384,0.870,0.366,-0.793,9.521,-1.709,57.352,22.483
0.373,0.816,0.332,-15.015,-1.221,2.197,57.938,22.460
0.372,0.809,0.368,21.790,-0.488,31.555,57.399,22.850
0.289,0.782,0.235,-65.735,-12.085,10.254,59.566,21.915
0.400,0.960,0.409,-40.710,-3.296,0.366,59.718,21.584


0.313,0.857,0.352,3.662,1.038,3.723,60.401,20.518
0.310,0.849,0.324,5.493,2.502,3.479,61.647,19.548
0.361,0.833,0.363,11.963,2.686,3.845,60.221,20.066
0.594,0.983,0.476,1.709,-4.517,25.024,58.168,22.361
0.666,1.009,0.538,18.188,-20.691,66.467,54.994,25.493
0.389,1.066,0.564,26.184,-47.974,70.374,54.317,24.807
0.080,0.955,0.531,21.057,-82.642,49.072,55.796,20.877
-0.172,0.844,0.450,63.171,-109.985,24.536,59.349,12.354
-0.259,0.810,0.407,99.792,-128.723,8.911,62.015,0.523
-0.417,0.688,0.422,136.597,-133.240,1.343,59.182,-11.542
-0.615,0.398,0.387,150.696,-120.422,-2.502,51.014,-24.530
-0.737,0.241,0.410,148.682,-98.694,-16.052,39.421,-37.062
-0.891,0.078,0.484,116.760,-78.003,-29.846,23.986,-50.297
-0.955,0.056,0.429,99.304,-58.472,-41.687,12.041,-59.586
-0.951,0.150,0.443,62.988,-50.293,-46.021,7.567,-62.459
-0.946,0.129,0.313,84.900,-51.025,-50.110,5.746,-65.328
-0.921,0.268,0.303,39.124,-46.265,-50.049,8.439,-66.954
-0.930,0.267,0.217,21.667,-38.818,-55.298,11.608,-68.011
-0.848,0.235,0.058,37.415,-36.194,-62.378,13.470,-70.849
-0.756,0.448,0.126,17.639,-33.386,-63.538,19.059,-67.836
-0.763,0.384,0.080,8.118,-20.081,-57.373,21.829,-66.715
-0.772,0.487,0.090,4.395,-19.775,-59.082,26.192,-63.083
-0.702,0.562,0.089,-5.554,-9.827,-55.603,31.930,-57.323
-0.695,0.577,0.037,1.343,-4.944,-38.513,34.290,-55.286
-0.676,0.573,0.061,-3.479,-1.343,-15.991,37.554,-52.094
-0.730,0.684,0.099,9.277,-0.244,-5.127,40.371,-49.279
-0.701,0.715,0.081,2.808,-0.427,-6.531,42.141,-47.548
-0.714,0.711,0.060,8.423,1.160,-3.296,43.390,-46.267
-0.705,0.721,0.084,10.437,2.747,-2.319,44.621,-45.007
-0.692,0.697,0.089,4.456,4.761,9.033,45.141,-44.507
-0.691,0.680,0.073,7.202,7.629,28.259,44.908,-44.752
-0.657,0.646,0.091,4.333,17.212,55.298,44.778,-44.791
-0.725,0.497,0.128,-9.033,16.296,81.970,42.072,-47.335
-0.785,0.470,0.099,-15.625,33.997,88.013,38.468,-50.869
-0.849,0.341,0.068,-26.123,58.289,91.553,32.713,-56.571
-0.880,0.237,0.220,-40.833,75.195,82.947,25.216,-63.311
-0.835,0.061,0.329,-61.890,76.721,74.646,17.938,-68.481
-0.819,0.106,0.471,-68.420,80.872,65.491,11.837,-68.687
-0.777,0.147,0.506,-89.417,81.604,59.021,8.592,-63.883
-0.679,0.221,0.571,-110.657,79.651,47.241,8.369,-57.879
-0.567,0.363,0.640,-127.686,74.219,31.067,13.124,-50.496
-0.458,0.502,0.738,-120.056,76.111,14.282,19.452,-42.082
-0.369,0.615,0.674,-100.464,67.688,-2.380,26.955,-33.547
-0.355,0.777,0.628,-97.534,65.979,-11.536,35.198,-26.531
-0.231,0.848,0.650,-42.358,66.711,-25.085,42.069,-20.193
-0.173,0.777,0.541,-39.673,67.322,-26.062,47.805,-16.074
-0.047,0.771,0.523,-10.437,66.406,-32.776,52.036,-11.546
0.172,0.915,0.584,-11.230,61.584,-41.626,55.044,-3.954
0.203,0.894,0.565,-15.991,49.011,-36.011,56.553,2.206
0.301,0.885,0.501,-6.531,37.781,-38.635,56.858,8.736
0.404,0.826,0.427,-5.066,26.123,-32.471,56.376,14.803
0.395,0.848,0.436,-12.268,18.066,-24.048,56.011,18.230
0.450,0.865,0.458,6.042,13.977,-15.503,55.055,21.782
0.388,0.751,0.469,-4.944,-2.625,-2.441,53.599,23.608
0.418,0.794,0.353,5.310,28.320,-10.925,53.836,24.148
0.346,0.755,0.314,7.935,0.916,-1.953,54.478,24.327
0.368,0.846,0.398,4.578,-0.244,1.770,55.543,23.477
0.458,0.880,0.350,-20.081,7.690,5.859,56.987,24.021
0.377,0.820,0.352,-15.320,-2.441,0.061,57.565,23.336
0.383,0.819,0.316,-8.789,-3.113,-2.319,57.712,23.485
0.371,0.820,0.287,-10.864,-0.916,-0.366,58.369,23.905
0.383,0.833,0.279,-11.108,-4.028,-1.831,59.311,23.305
0.397,0.849,0.281,-8.911,-0.793,-0.549,59.898,23.559


0.320,0.882,0.329,10.742,3.540,4.150,60.886,22.338
0.389,0.868,0.388,7.812,5.066,7.690,60.236,22.142
0.428,0.883,0.402,0.488,4.089,8.850,59.176,22.245
0.658,0.869,0.464,2.441,-7.446,34.119,55.648,25.046
0.552,0.985,0.548,18.921,-25.818,59.143,53.047,26.702
0.363,1.021,0.508,15.625,-46.448,58.777,53.565,25.365
0.064,1.023,0.398,33.569,-75.134,43.152,57.099,20.652
-0.103,0.952,0.363,66.162,-101.563,32.471,63.124,11.323
-0.263,0.800,0.301,87.891,-119.751,31.250,67.513,0.856
-0.437,0.637,0.431,120.239,-120.422,24.475,63.978,-11.219
-0.578,0.361,0.442,164.062,-113.281,4.333,53.079,-23.672
-0.762,0.050,0.434,135.132,-87.036,-29.236,35.428,-39.790
-0.886,0.038,0.447,112.793,-63.354,-47.424,18.810,-52.231
-0.889,0.167,0.493,81.604,-45.959,-52.368,9.708,-58.373
-0.873,0.152,0.485,61.646,-39.978,-47.668,5.995,-60.831
-0.836,0.211,0.466,51.331,-43.091,-43.152,8.162,-60.460
-0.801,0.280,0.427,39.001,-44.861,-40.466,11.798,-59.052
-0.813,0.210,0.302,26.550,-42.297,-44.312,12.904,-60.456
-0.918,0.330,0.304,32.898,-32.227,-43.396,15.629,-61.631
-0.920,0.392,0.287,24.109,-29.541,-48.035,18.165,-62.569
-0.787,0.374,0.212,12.939,-31.250,-50.598,19.893,-63.540
-0.731,0.445,0.195,14.343,-32.043,-44.983,23.765,-61.313
-0.756,0.460,0.142,2.319,-26.245,-36.743,26.846,-59.676
-0.789,0.457,0.125,-2.930,-20.325,-40.588,28.963,-58.708
-0.735,0.518,0.062,-6.897,-13.306,-48.950,31.599,-57.048
-0.707,0.622,0.045,-5.127,-5.615,-22.766,34.357,-55.000
-0.743,0.634,0.049,6.287,1.343,2.869,36.769,-52.892
-0.755,0.618,0.061,2.197,6.409,6.958,39.068,-50.741
-0.762,0.634,0.060,7.446,10.376,10.315,40.141,-49.682
-0.692,0.601,0.032,-7.996,20.386,25.208,40.048,-49.794
-0.631,0.504,-0.024,-17.944,37.170,56.824,39.664,-50.267
-0.703,0.560,0.007,-20.935,58.655,80.688,39.506,-50.469
-0.789,0.410,0.130,-21.973,66.162,85.388,36.360,-53.538
-0.826,0.311,0.334,-53.711,61.279,76.111,30.901,-58.034
-0.808,0.287,0.397,-61.646,60.852,62.622,25.804,-60.163
-0.847,0.258,0.421,-64.758,62.988,46.265,19.821,-61.150
-0.815,0.303,0.439,-62.073,66.650,29.907,17.572,-59.159
-0.791,0.437,0.452,-80.933,57.434,23.071,19.242,-56.759
-0.746,0.423,0.476,-78.247,51.575,8.118,21.190,-54.488
-0.682,0.500,0.549,-76.782,53.040,-8.850,24.864,-50.099
-0.599,0.665,0.627,-99.243,71.045,-30.029,29.940,-43.970
-0.449,0.630,0.583,-82.703,83.862,-43.457,33.628,-38.175
-0.274,0.802,0.635,-67.505,96.252,-46.570,39.761,-29.563
-0.217,0.788,0.455,-35.217,96.313,-42.786,46.195,-22.642
-0.137,0.780,0.404,2.502,88.989,-38.574,52.051,-16.459
0.035,0.836,0.458,13.855,83.679,-34.912,57.528,-8.985
0.211,0.939,0.498,-2.319,72.876,-30.823,61.454,-1.642
0.303,0.813,0.421,3.113,51.147,-23.865,61.508,6.165
0.420,0.789,0.451,13.916,31.006,-18.433,58.513,14.154
0.466,0.782,0.443,-4.272,24.475,-20.508,55.423,20.293
0.528,0.844,0.477,7.568,19.226,-18.799,52.444,24.942
0.430,0.709,0.445,-12.207,-2.991,1.465,50.352,27.040
0.363,0.621,0.095,-5.615,2.075,-12.390,52.006,28.467
0.418,0.740,0.360,-3.784,-1.099,0.000,52.712,28.357
0.381,0.812,0.367,-7.446,-2.136,-3.601,54.771,26.831
0.384,0.797,0.339,-18.921,0.244,1.038,56.934,25.872
0.396,0.845,0.326,-11.841,-1.282,-0.488,56.611,24.387
0.376,0.823,0.289,-7.446,-2.869,-0.366,58.256,23.515


0.345,0.850,0.389,5.798,6.226,1.221,58.711,22.776
0.344,0.787,0.370,6.653,3.357,1.404,58.750,22.206
0.362,0.779,0.375,15.808,-1.221,-0.366,58.104,21.976
0.607,0.878,0.540,-9.155,-8.545,23.132,54.417,24.176
0.613,1.076,0.606,-5.554,-21.362,37.537,52.510,25.740
0.426,1.012,0.535,22.339,-41.260,61.401,52.485,25.183
0.260,1.073,0.475,43.640,-56.458,75.928,54.519,22.613
-0.053,0.832,0.373,55.786,-92.773,51.697,59.552,15.612
-0.230,0.757,0.419,78.308,-110.657,34.058,63.324,5.629
-0.409,0.642,0.394,94.849,-116.028,14.832,62.550,-6.668
-0.563,0.524,0.431,152.649,-109.131,-9.705,53.371,-21.465
-0.688,0.404,0.547,116.943,-86.731,-20.020,41.762,-32.790
-0.777,0.202,0.515,110.901,-68.237,-27.466,29.873,-43.286
-0.785,0.187,0.525,79.651,-51.819,-41.382,20.817,-49.425
-0.830,0.125,0.484,80.383,-45.166,-41.687,13.883,-53.685
-0.830,0.224,0.539,50.476,-39.795,-40.222,10.905,-55.803
-0.886,0.179,0.483,41.382,-35.828,-40.344,10.375,-57.148
-0.926,0.180,0.418,37.109,-36.926,-43.274,10.105,-59.458
-0.895,0.236,0.361,41.626,-34.912,-49.438,11.657,-60.792
-0.906,0.276,0.232,37.903,-34.302,-56.946,12.568,-64.432
-0.827,0.376,0.371,33.264,-37.354,-58.655,15.650,-63.836
-0.740,0.489,0.276,13.245,-31.372,-68.237,20.986,-61.201
-0.651,0.414,0.215,14.404,-27.161,-72.693,25.154,-58.691
-0.622,0.524,0.218,1.953,-22.644,-60.364,30.673,-53.508
-0.676,0.580,0.171,-15.259,-14.404,-28.259,35.346,-50.821
-0.728,0.669,0.153,-5.432,-8.057,-8.850,38.179,-49.144
-0.730,0.649,0.137,-0.366,-2.441,-5.249,40.476,-47.611
-0.726,0.650,0.139,7.935,0.916,-5.310,41.083,-47.538
-0.723,0.683,0.171,5.981,2.502,-1.465,41.767,-46.928
-0.703,0.692,0.172,3.174,3.235,-0.122,42.202,-46.410
-0.704,0.670,0.138,3.235,6.287,4.639,42.676,-45.930
-0.634,0.563,0.115,-3.418,14.221,27.222,42.683,-45.939
-0.625,0.617,0.090,-3.296,29.785,66.711,43.101,-45.797
-0.644,0.606,0.121,-20.386,53.467,106.262,42.834,-46.217
-0.746,0.448,0.184,-36.865,66.895,119.263,39.625,-49.140
-0.806,0.249,0.336,-54.260,63.293,105.103,33.382,-53.931
-0.801,0.112,0.369,-90.637,51.697,79.590,24.107,-59.882
-0.767,0.134,0.400,-77.209,45.959,51.819,15.618,-62.882
-0.765,0.178,0.477,-75.623,37.720,30.884,10.841,-61.292
-0.854,0.213,0.540,-93.628,36.804,12.634,9.881,-59.237
-0.832,0.379,0.524,-108.276,42.358,-7.507,13.516,-56.354
-0.753,0.516,0.395,-122.986,55.603,-33.386,18.942,-54.047
-0.637,0.648,0.356,-77.820,66.345,-61.768,26.171,-50.615
-0.465,0.913,0.463,-79.651,91.187,-73.486,37.502,-41.767
-0.288,0.995,0.432,-36.255,115.112,-66.956,48.663,-31.589
-0.049,0.936,0.516,0.549,122.131,-55.725,56.882,-20.184
0.170,0.982,0.527,19.897,107.422,-57.617,61.965,-8.380
0.420,1.048,0.541,19.104,78.979,-44.495,62.853,3.255
0.385,0.842,0.433,21.667,47.302,-22.400,59.775,12.132
0.444,0.744,0.450,5.066,33.508,-19.104,56.295,19.057
0.530,0.723,0.438,15.137,21.423,-16.113,52.508,24.868
0.534,0.667,0.419,-0.244,12.451,-12.451,49.177,28.777
0.479,0.796,0.474,11.780,5.981,-2.625,47.677,30.092
0.470,0.814,0.406,2.869,11.963,-1.221,48.460,30.139
0.421,0.709,0.384,-16.357,0.000,6.836,49.610,29.046
0.388,0.760,0.381,-17.883,-0.549,1.648,51.991,26.720
0.392,0.804,0.361,-26.489,-4.456,0.671,53.728,25.850
0.425,0.819,0.345,-7.446,-0.916,-0.916,54.672,25.383


0.453,0.844,0.472,-7.812,2.319,17.700,54.815,24.814
0.474,0.836,0.379,3.540,-2.197,23.437,54.708,25.527
0.422,0.837,0.459,34.119,-13.123,31.372,53.969,25.475
0.437,0.890,0.523,34.668,-26.489,43.335,53.078,24.786
0.294,0.990,0.575,22.888,-40.894,42.664,54.548,21.916
0.102,0.856,0.542,17.090,-57.312,37.964,55.600,16.859
-0.013,0.825,0.532,34.912,-74.585,29.053,56.888,11.130
-0.141,0.797,0.551,46.204,-91.736,16.052,57.457,3.382
-0.288,0.717,0.553,63.416,-104.492,2.686,55.405,-5.024
-0.427,0.635,0.504,101.746,-109.070,-11.047,52.170,-13.351
-0.617,0.453,0.509,118.835,-101.746,-18.677,45.262,-23.712
-0.715,0.208,0.516,112.549,-85.266,-30.457,34.587,-35.261
-0.818,0.163,0.547,98.389,-68.726,-35.828,23.809,-45.440
-0.839,0.208,0.532,88.989,-63.293,-43.945,15.787,-51.896
-0.838,0.180,0.477,60.974,-59.021,-45.410,11.254,-55.487
-0.913,0.183,0.456,66.772,-61.768,-40.222,10.520,-57.843
-0.960,0.236,0.396,45.898,-59.570,-41.626,11.385,-60.251
-0.915,0.281,0.327,18.005,-45.471,-46.387,12.454,-62.652
-0.854,0.312,0.206,23.499,-32.410,-51.208,14.564,-64.781
-0.822,0.329,0.209,23.926,-27.100,-56.702,17.254,-65.433
-0.845,0.463,0.210,31.799,-26.733,-59.021,21.229,-63.935
-0.712,0.490,0.176,17.029,-21.484,-66.345,25.577,-61.108
-0.624,0.443,0.141,18.677,-17.090,-64.453,29.158,-58.015
-0.633,0.593,0.122,6.226,-8.179,-47.852,34.557,-53.373
-0.691,0.667,0.123,-5.371,-3.906,-2.197,38.893,-49.600
-0.739,0.657,0.140,3.113,1.038,11.536,40.749,-48.029
-0.715,0.633,0.157,8.850,4.272,-1.160,42.009,-46.827
-0.712,0.602,0.193,1.526,3.784,0.427,41.204,-47.361
-0.740,0.661,0.207,9.766,5.371,6.775,40.509,-47.674
-0.715,0.595,0.179,6.653,5.371,9.521,39.948,-47.969
-0.720,0.605,0.190,-4.272,5.127,19.653,39.510,-48.206
-0.703,0.547,0.155,-11.780,8.240,29.236,39.052,-48.824
-0.650,0.490,0.068,-20.996,10.986,50.415,38.135,-50.302
-0.732,0.456,0.050,-21.118,19.653,70.129,36.438,-52.537
-0.813,0.420,0.081,-21.851,33.813,73.120,33.252,-56.107
-0.823,0.239,0.163,-23.499,40.955,67.139,27.847,-61.386
-0.805,0.331,0.297,-41.992,42.114,58.289,24.149,-63.766
-0.881,0.184,0.316,-58.533,56.152,47.302,18.902,-66.351
-0.907,0.214,0.371,-51.697,69.702,29.602,15.041,-66.273
-0.877,0.172,0.502,-73.120,87.708,12.268,13.437,-63.387
-0.811,0.321,0.557,-126.221,98.206,-2.502,12.913,-60.580
-0.727,0.320,0.388,-106.812,99.182,-16.357,15.187,-57.842
-0.679,0.484,0.258,-63.232,94.116,-30.273,20.174,-55.286
-0.398,0.973,0.360,-104.919,107.910,-42.725,34.558,-44.972
-0.161,1.088,0.403,-53.223,123.169,-47.424,49.832,-31.604
0.003,1.032,0.428,-16.663,120.789,-47.241,61.964,-17.747
0.248,1.019,0.508,18.982,101.563,-39.185,67.215,-3.974
0.405,0.922,0.463,7.019,83.069,-35.217,65.299,6.337
0.583,0.907,0.520,-3.296,54.565,-16.296,59.532,15.952
0.531,0.780,0.488,-2.502,30.579,-4.639,53.839,23.134
0.564,0.741,0.518,9.216,21.423,-5.798,49.321,28.125
0.417,0.713,0.488,-11.047,-3.052,-0.671,47.224,29.317
0.312,0.600,0.366,-29.663,-3.784,-8.057,47.402,28.286
0.397,0.812,0.403,6.836,-0.610,3.235,49.459,26.628
0.315,0.802,0.405,-26.672,-1.099,-1.953,53.071,23.179
0.363,0.781,0.354,5.493,0.671,-0.366,55.438,22.410
0.428,0.797,0.385,-5.371,3.418,1.526,55.960,22.960
0.431,0.808,0.344,-12.268,-0.366,0.732,56.143,23.604
0.387,0.801,0.322,-16.235,-1.038,1.038,56.168,24.804
0.380,0.823,0.305,-14.709,-3.540,-1.221,56.732,24.924
0.398,0.827,0.288,-6.836,-3.235,-0.977,58.028,24.569


0.359,0.813,0.401,0.122,0.488,3.113,58.309,23.430
0.381,0.792,0.419,5.493,2.686,1.648,57.473,23.173
0.375,0.794,0.414,1.404,2.319,1.404,56.345,22.992
0.547,0.812,0.494,8.972,-4.089,19.714,53.232,24.510
0.609,0.874,0.527,14.343,-15.503,40.955,50.833,26.960
0.479,0.938,0.558,28.076,-22.400,64.697,50.362,26.932
0.332,0.892,0.499,15.076,-41.565,69.641,50.859,25.719
0.056,0.913,0.463,21.545,-74.402,49.194,55.088,19.565
-0.134,0.807,0.428,55.237,-97.534,29.297,59.622,10.265
-0.246,0.756,0.461,83.191,-112.976,10.864,61.216,0.129
-0.390,0.689,0.495,106.323,-116.028,-6.042,57.971,-11.026
-0.582,0.537,0.444,134.705,-105.042,-9.033,50.828,-22.069
-0.685,0.451,0.501,118.652,-91.125,-13.367,42.145,-31.647
-0.745,0.180,0.525,117.737,-70.801,-24.536,30.913,-41.618
-0.852,0.144,0.611,91.553,-55.176,-35.217,20.356,-49.332
-0.899,0.132,0.569,79.956,-44.922,-42.542,13.194,-53.135
-0.918,0.068,0.503,67.627,-50.110,-44.861,7.340,-56.386
-0.929,0.003,0.397,50.964,-52.124,-57.678,4.758,-59.624
-0.881,0.089,0.296,53.955,-46.631,-75.195,4.123,-63.753
-0.724,0.319,0.276,38.574,-37.231,-88.013,7.269,-65.855
-0.795,0.362,0.163,31.067,-35.400,-90.088,12.397,-67.630
-0.754,0.496,0.215,32.593,-38.696,-81.421,21.027,-63.354
-0.650,0.433,0.142,-27.344,-34.180,-72.876,27.998,-58.427
-0.634,0.649,0.138,-11.230,-16.785,-35.522,33.703,-54.133
-0.730,0.607,0.066,1.038,-4.272,-15.198,37.730,-50.817
-0.713,0.715,0.144,9.033,-1.404,-6.226,40.952,-48.015
-0.714,0.702,0.120,5.371,0.549,-6.287,43.373,-45.795
-0.693,0.710,0.108,5.188,2.808,-5.615,43.484,-45.817
-0.689,0.671,0.119,7.263,3.479,1.221,44.463,-44.672
-0.700,0.659,0.132,5.676,2.258,4.333,44.028,-45.129
-0.708,0.651,0.139,5.127,2.502,4.150,43.509,-45.560
-0.687,0.669,0.146,2.319,4.272,6.104,43.062,-45.847
-0.678,0.643,0.125,1.404,7.812,13.916,42.857,-46.011
-0.602,0.538,0.070,4.639,18.188,46.997,42.623,-46.408
-0.649,0.629,0.149,0.061,40.100,83.984,42.976,-45.987
-0.612,0.442,0.184,-38.574,56.091,98.572,40.955,-47.683
-0.747,0.293,0.127,-39.001,58.960,94.971,35.539,-52.886
-0.862,0.322,0.286,-68.115,59.326,76.233,29.629,-57.274
-0.831,0.264,0.411,-73.181,57.800,58.838,22.342,-61.425
-0.847,0.144,0.504,-93.750,46.509,34.485,16.089,-62.973
-0.774,0.380,0.625,-92.773,50.903,9.583,16.349,-57.175
-0.687,0.430,0.606,-111.023,62.744,-2.075,17.750,-51.825
-0.647,0.624,0.519,-126.221,79.895,-18.494,23.000,-47.033
-0.501,0.647,0.470,-109.070,101.990,-37.476,31.282,-40.601
-0.397,0.740,0.465,-96.008,115.479,-48.401,38.786,-34.940
-0.275,0.871,0.490,-78.369,116.882,-52.185,47.271,-27.621
-0.090,0.855,0.460,-10.254,109.253,-48.218,53.929,-19.127
-0.082,0.989,0.410,7.874,99.487,-48.828,59.816,-12.179
0.276,0.965,0.482,39.429,79.773,-33.264,63.327,-2.376
0.431,1.016,0.501,2.258,63.293,-17.151,63.247,7.168
0.515,0.912,0.551,-12.024,48.462,-0.854,59.869,14.709
0.451,0.705,0.453,16.724,41.321,-6.287,54.171,22.145
0.492,0.743,0.443,9.094,30.334,-6.653,51.203,25.859
0.484,0.801,0.547,11.353,7.935,-1.770,48.625,27.468
0.485,1.031,0.818,-53.406,39.673,-9.521,47.920,25.640
0.387,0.759,0.346,-4.700,-2.136,0.427,49.593,24.967
0.380,0.828,0.383,-13.367,-2.197,0.183,51.495,23.413
0.354,0.781,0.313,-14.465,-2.686,-0.793,54.136,22.510
0.351,0.842,0.278,-13.855,-4.150,-1.404,58.364,22.983
0.376,0.865,0.303,-15.686,-2.136,2.136,59.661,22.350


0.328,0.908,0.318,1.221,2.808,3.052,61.307,21.346
0.337,0.882,0.329,9.766,5.615,0.549,62.044,20.588
0.314,0.852,0.348,14.648,4.272,-0.122,61.854,19.923
0.519,0.998,0.474,0.427,-9.766,17.456,60.045,20.893
0.564,1.161,0.546,5.249,-28.137,49.622,58.069,22.217
0.390,1.086,0.431,19.165,-45.593,70.557,58.242,21.778
0.222,0.964,0.353,20.386,-60.974,70.496,59.537,20.319
-0.008,0.934,0.365,54.077,-87.830,54.993,63.590,14.620
-0.176,0.950,0.377,79.590,-107.056,40.405,68.060,5.790
-0.376,0.740,0.346,95.215,-114.014,25.269,67.583,-4.999
-0.578,0.590,0.348,135.254,-102.722,0.977,60.314,-17.915
-0.707,0.343,0.380,135.986,-82.031,-16.174,48.251,-31.503
-0.771,0.257,0.475,121.948,-66.589,-23.926,33.793,-44.498
-0.826,0.120,0.535,91.553,-57.312,-36.743,21.265,-52.935
-0.874,0.168,0.567,77.637,-55.725,-46.814,13.374,-55.932
-0.892,0.107,0.472,76.050,-52.063,-55.725,9.398,-57.397
-0.891,0.224,0.435,51.514,-42.969,-60.242,8.743,-58.879
-0.842,0.263,0.361,41.077,-43.213,-58.899,10.912,-60.407
-0.818,0.297,0.307,33.875,-41.931,-55.969,13.239,-62.274
-0.794,0.304,0.211,24.048,-38.269,-54.688,16.836,-62.988
-0.753,0.420,0.200,11.414,-21.545,-62.805,20.780,-62.402
-0.777,0.549,0.246,28.381,-20.996,-61.523,25.532,-59.624
-0.708,0.579,0.220,15.869,-24.048,-62.744,30.408,-55.948
-0.609,0.578,0.176,9.094,-22.034,-53.345,35.616,-51.225
-0.618,0.607,0.126,-12.756,-14.832,-25.269,39.379,-48.054
-0.675,0.676,0.132,-14.709,-5.920,-1.770,42.207,-45.934
-0.708,0.661,0.128,4.517,-0.488,-0.305,43.372,-45.286
-0.707,0.658,0.180,7.263,3.113,-2.075,43.242,-45.485
-0.688,0.685,0.199,7.812,2.258,1.831,43.230,-45.239
-0.689,0.698,0.180,4.883,3.540,2.136,43.208,-45.051
-0.709,0.653,0.170,1.770,3.662,7.507,43.012,-45.030
-0.697,0.624,0.181,5.066,6.165,8.545,42.740,-45.264
-0.670,0.619,0.179,8.789,7.996,19.104,42.248,-45.804
-0.609,0.613,0.141,-1.465,19.836,42.053,42.187,-45.962
-0.668,0.550,0.087,-10.010,48.462,61.584,41.612,-46.875
-0.675,0.541,0.215,10.559,65.674,68.848,40.756,-47.482
-0.706,0.426,0.317,-33.813,62.744,70.007,37.606,-49.619
-0.625,0.298,0.271,-43.579,58.105,70.740,32.772,-52.921
-0.689,0.345,0.397,-70.068,56.763,69.519,28.611,-53.325
-0.684,0.244,0.512,-57.068,61.584,59.448,23.007,-53.637
-0.660,0.280,0.612,-78.735,69.946,52.246,20.000,-51.185
-0.646,0.274,0.616,-96.741,81.238,28.931,18.446,-47.862
-0.582,0.460,0.575,-127.380,93.994,6.226,19.979,-44.296
-0.527,0.532,0.434,-80.383,96.252,-19.470,25.169,-41.594
-0.403,0.736,0.349,-84.167,96.313,-30.823,34.394,-37.494
-0.233,0.990,0.456,-53.284,88.562,-37.903,47.205,-28.091
0.009,1.114,0.480,-20.630,84.900,-41.016,58.446,-16.957
0.094,1.013,0.443,4.456,79.956,-33.020,64.854,-7.190
0.151,0.904,0.460,19.531,77.393,-28.564,65.417,0.278
0.290,0.934,0.461,7.874,70.801,-26.733,64.120,7.093
0.402,0.878,0.504,27.344,58.533,-10.315,60.718,12.673
0.375,0.760,0.504,26.001,42.847,-5.554,56.703,17.046
0.433,0.646,0.408,20.752,35.095,-14.404,53.236,21.948
0.518,0.675,0.512,17.456,31.555,-25.513,48.803,26.089
0.416,0.550,0.478,1.892,-5.005,8.606,45.565,28.232
0.479,0.725,0.420,16.846,2.136,-5.920,45.057,30.232
0.385,0.647,0.462,-14.099,-1.404,1.831,45.028,29.324
0.450,0.750,0.443,-12.024,-3.723,-0.916,46.922,28.232
0.396,0.741,0.409,-7.263,-1.404,2.136,49.616,27.068
0.408,0.774,0.399,-11.841,-0.793,0.061,50.855,25.878
0.422,0.767,0.391,-13.916,-2.014,-1.099,52.271,25.916
0.418,0.755,0.348,-19.348,-3.174,1.343,53.385,25.742
0.420,0.831,0.354,-16.968,-2.563,0.000,54.417,25.695


0.318,0.844,0.364,4.456,0.977,3.174,56.111,24.173
0.406,0.867,0.386,4.150,-0.244,5.859,57.095,23.440
0.691,0.935,0.519,-14.832,-7.263,32.166,54.830,25.554
0.621,1.053,0.612,35.095,-33.813,53.589,53.160,26.126
0.409,0.981,0.526,15.869,-56.946,65.491,52.447,26.079
0.144,1.066,0.424,54.626,-72.510,58.472,55.303,22.331
-0.096,0.977,0.444,68.604,-81.238,26.184,60.817,13.345
-0.244,0.766,0.399,79.895,-95.520,6.287,64.527,2.907
-0.336,0.597,0.415,121.216,-110.352,-7.324,62.618,-7.974
-0.483,0.509,0.533,115.295,-107.666,-13.367,53.171,-19.000
-0.614,0.163,0.586,119.141,-93.750,-25.818,38.482,-30.857
-0.714,0.025,0.613,87.708,-72.449,-51.453,23.065,-40.572
-0.812,0.067,0.516,102.600,-68.298,-61.340,12.451,-47.846
-0.919,0.148,0.486,75.562,-56.824,-62.256,6.088,-53.813
-0.970,0.108,0.436,68.298,-54.138,-59.509,4.990,-58.654
-0.896,0.250,0.430,42.236,-50.781,-59.387,8.047,-61.496
-0.899,0.241,0.366,32.898,-47.241,-62.683,10.418,-63.047
-0.831,0.350,0.345,17.273,-34.912,-69.519,13.598,-62.893
-0.798,0.417,0.247,31.738,-26.917,-73.669,18.813,-61.316
-0.758,0.437,0.166,28.503,-27.527,-80.872,22.603,-60.871
-0.663,0.542,0.196,11.658,-23.621,-75.989,28.650,-56.886
-0.609,0.557,0.192,10.071,-11.536,-58.899,33.589,-53.273
-0.668,0.684,0.205,-8.789,-7.874,-17.029,38.368,-49.002
-0.681,0.708,0.203,7.080,-2.869,0.366,42.269,-45.075
-0.685,0.703,0.174,4.639,-2.869,3.174,43.914,-43.736
-0.699,0.663,0.172,8.484,-0.916,4.211,44.203,-43.714
-0.695,0.692,0.197,7.202,-0.366,1.648,44.039,-43.943
-0.685,0.668,0.174,9.216,1.709,2.441,43.651,-44.455
-0.697,0.687,0.207,0.549,3.967,2.319,43.281,-44.651
-0.679,0.643,0.189,0.366,5.371,5.981,43.225,-44.582
-0.644,0.619,0.188,-2.136,7.935,29.053,42.955,-44.806
-0.625,0.610,0.179,-9.888,13.611,57.495,42.909,-44.724
-0.666,0.485,0.142,-31.616,13.306,79.834,41.052,-46.762
-0.680,0.545,0.208,-72.449,21.790,96.680,39.796,-47.809
-0.836,0.312,0.174,-38.574,53.833,87.341,34.011,-53.512
-0.913,0.189,0.107,-46.082,75.256,67.871,25.862,-61.840
-0.927,0.239,0.349,-40.649,79.468,49.133,20.393,-65.412
-0.906,0.306,0.492,-71.533,70.435,40.039,15.580,-66.798
-0.848,0.232,0.504,-65.674,65.613,32.349,13.999,-64.104
-0.768,0.218,0.511,-63.293,77.148,21.057,14.263,-58.578
-0.704,0.378,0.570,-55.847,67.627,12.878,16.470,-53.730
-0.599,0.565,0.627,-59.631,61.401,2.014,20.827,-48.150
-0.456,0.747,0.751,-73.364,71.289,1.526,28.428,-39.064
-0.424,0.724,0.780,-77.637,70.313,2.380,34.647,-30.933
-0.337,0.654,0.699,-64.758,68.604,3.967,38.473,-24.837
-0.345,0.608,0.491,-44.617,65.674,-2.808,41.058,-22.049
-0.237,0.666,0.417,-17.578,73.181,-18.311,44.065,-20.635
-0.146,0.814,0.430,-26.733,83.435,-36.743,50.012,-17.325
0.062,0.916,0.501,-2.197,90.454,-42.542,56.917,-10.702
0.297,0.950,0.547,5.066,82.825,-41.687,60.465,-0.355
0.500,0.826,0.503,10.193,63.538,-30.151,59.000,10.049
0.534,0.710,0.494,7.812,33.264,-14.160,53.956,19.344
0.507,0.685,0.481,1.343,23.071,-8.911,49.217,26.037
0.521,0.724,0.548,15.686,7.751,-7.568,45.530,29.969
0.369,0.707,0.423,5.676,-5.615,-4.456,45.874,29.358
0.417,0.707,0.372,9.644,0.183,-4.272,47.664,28.340
0.385,0.796,0.393,-20.508,0.854,4.211,50.436,26.382
0.400,0.813,0.346,-23.987,-0.549,1.160,54.001,24.860
0.390,0.800,0.344,-14.221,-0.488,2.991,55.300,24.842
0.401,0.833,0.332,-5.188,1.526,-2.441,56.838,24.017
0.435,0.793,0.337,-2.502,1.160,-2.075,56.811,24.838


0.376,0.788,0.395,7.751,3.296,1.282,56.438,24.536
0.446,0.766,0.450,7.446,4.517,2.930,54.782,25.205
0.412,0.749,0.423,15.747,2.625,15.015,53.204,25.575
0.539,0.832,0.461,-10.132,-4.150,10.803,51.679,26.352
0.587,0.937,0.542,0.488,-14.587,28.931,50.247,27.682
0.536,1.047,0.575,17.090,-29.785,56.274,51.041,26.898
0.405,1.036,0.542,22.827,-41.687,55.115,52.443,25.178
0.143,0.922,0.452,41.016,-72.510,42.053,55.663,20.483
-0.021,0.868,0.458,62.988,-94.910,29.968,59.408,13.663
-0.179,0.798,0.387,83.008,-112.610,13.672,62.669,4.889
-0.328,0.771,0.450,114.624,-114.563,3.052,61.944,-5.819
-0.525,0.595,0.537,134.460,-100.586,-4.456,55.115,-16.560
-0.677,0.321,0.568,146.606,-80.688,-13.306,43.849,-28.461
-0.714,-0.006,0.585,135.864,-65.369,-26.978,28.478,-39.509
-0.796,-0.103,0.512,90.088,-57.983,-42.114,13.030,-49.146
-0.957,-0.200,0.371,95.642,-52.734,-53.162,0.200,-57.076
-0.985,-0.100,0.388,48.096,-44.495,-60.242,-5.951,-61.157
-0.912,-0.028,0.388,36.865,-41.870,-59.937,-6.135,-64.842
-0.904,0.146,0.347,24.475,-38.025,-59.082,-2.576,-68.165
-0.887,0.173,0.256,26.672,-40.588,-56.213,2.781,-69.311
-0.924,0.264,0.309,29.846,-42.236,-49.011,8.205,-68.704
-0.958,0.275,0.248,26.306,-39.612,-51.147,12.563,-68.546
-0.916,0.246,0.116,39.795,-37.415,-68.237,14.155,-70.091
-0.772,0.485,0.098,32.593,-22.034,-85.266,19.182,-67.400
-0.708,0.526,0.080,44.495,-10.010,-71.533,24.279,-64.141
-0.719,0.489,0.074,24.719,-4.028,-30.640,29.116,-60.181
-0.817,0.638,0.095,-3.601,-1.526,5.310,35.161,-54.310
-0.817,0.539,0.084,1.831,5.432,0.671,35.450,-54.080
-0.781,0.511,0.105,3.784,7.568,4.028,34.610,-54.857
-0.785,0.479,0.085,1.526,15.381,31.616,33.927,-55.515
-0.706,0.454,0.072,-5.859,25.574,51.147,32.543,-56.902
-0.636,0.381,0.056,-23.987,32.837,73.120,31.974,-57.485
-0.672,0.393,0.172,-50.293,38.086,99.670,31.156,-57.970
-0.759,0.258,0.259,-46.387,48.706,99.854,27.723,-60.201
-0.947,0.062,0.326,-46.753,46.204,80.200,19.322,-65.660
-0.986,0.024,0.453,-60.425,49.072,59.448,11.649,-67.153
-0.924,0.009,0.393,-80.750,53.711,41.260,5.182,-67.821
-0.873,0.153,0.452,-81.604,68.665,29.968,3.487,-66.226
-0.702,0.292,0.568,-121.033,82.642,17.334,6.887,-61.076
-0.611,0.370,0.729,-118.286,91.736,10.681,12.307,-53.578
-0.485,0.426,0.797,-128.967,90.698,-1.465,18.597,-43.322
-0.363,0.853,0.681,-131.409,79.041,-21.484,28.908,-32.538
-0.241,0.821,0.635,-59.998,96.619,-35.034,36.735,-24.289
-0.100,0.943,0.647,-1.648,103.577,-17.883,45.379,-16.132
0.052,0.839,0.595,9.216,96.130,-20.203,52.642,-8.609
0.333,0.823,0.598,19.470,84.595,-26.123,54.160,0.601
0.443,0.791,0.643,8.423,60.059,-18.066,52.698,9.819
0.502,0.679,0.565,6.348,42.114,-14.099,48.774,18.619
0.513,0.705,0.593,0.671,25.024,-8.423,45.045,24.998
0.459,0.666,0.588,-5.188,-1.038,0.671,42.844,27.313
0.450,0.905,0.519,-16.785,10.010,-5.432,44.834,27.333
0.408,0.749,0.483,-25.146,3.113,4.761,46.714,26.136
0.403,0.766,0.468,-22.034,-6.226,1.587,49.004,24.881
0.366,0.786,0.410,-19.592,-4.089,0.671,52.210,23.642
0.354,0.818,0.395,-8.301,-3.113,-3.601,53.249,23.154
0.384,0.803,0.391,2.197,-1.404,-0.854,54.726,22.813


0.477,0.807,0.471,2.502,1.099,10.742,54.448,23.589
0.430,0.765,0.433,12.207,-5.554,14.648,53.555,24.483
0.537,0.909,0.568,8.850,-19.897,31.006,51.517,25.845
0.477,0.865,0.539,20.569,-47.119,52.856,50.258,26.211
0.188,0.860,0.536,31.250,-70.984,46.997,52.143,22.296
-0.011,0.873,0.497,59.204,-93.445,24.292,55.056,16.183
-0.174,0.789,0.502,91.919,-108.215,-1.404,57.844,6.902
-0.336,0.674,0.500,142.273,-117.554,-24.841,57.172,-5.023
-0.532,0.316,0.516,163.513,-116.028,-47.974,49.384,-17.549
-0.703,0.132,0.545,132.690,-95.154,-72.815,35.255,-31.829
-0.838,0.169,0.582,93.384,-69.519,-66.040,21.808,-43.910
-0.933,0.198,0.607,89.050,-71.472,-43.396,12.231,-51.466
-0.880,0.105,0.491,57.739,-66.711,-41.443,8.524,-55.491
-0.842,0.105,0.280,42.847,-51.270,-59.204,8.193,-59.678
-0.862,0.237,0.264,39.246,-41.626,-65.186,9.436,-63.366
-0.839,0.288,0.245,20.142,-30.457,-62.012,11.370,-66.683
-0.819,0.324,0.210,19.409,-25.085,-60.669,15.218,-67.668
-0.803,0.373,0.172,25.757,-15.015,-59.875,19.557,-65.528
-0.772,0.467,0.165,27.466,-5.859,-54.688,23.574,-62.902
-0.790,0.559,0.133,20.752,-2.197,-21.851,27.898,-59.803
-0.811,0.602,0.249,3.845,0.916,-2.380,31.577,-56.192
-0.786,0.534,0.197,-1.831,2.747,-4.211,33.683,-54.093
-0.763,0.511,0.232,-12.451,7.263,6.104,34.146,-53.273
-0.761,0.474,0.216,1.099,7.629,14.343,33.156,-53.591
-0.723,0.416,0.165,-13.428,13.428,58.960,31.641,-55.338
-0.649,0.367,0.116,-44.739,27.588,97.290,30.607,-56.576
-0.777,0.284,0.264,-29.297,51.392,107.849,27.118,-59.435
-0.842,0.141,0.269,-47.485,55.298,93.506,21.281,-64.042
-0.822,-0.045,0.292,-67.200,50.354,78.430,13.030,-68.750
-0.824,0.040,0.438,-68.054,53.467,54.016,6.857,-67.818
-0.756,0.096,0.492,-102.417,54.443,33.447,3.728,-65.052
-0.781,0.182,0.545,-85.510,54.321,10.925,4.300,-60.657
-0.705,0.515,0.729,-120.239,69.946,-2.136,12.447,-52.438
-0.541,0.663,0.755,-112.549,83.496,-8.728,21.190,-43.696
-0.385,0.852,0.685,-119.934,103.088,-18.982,31.346,-34.556
-0.165,0.844,0.738,-29.297,98.938,-28.748,40.064,-23.713
-0.058,0.856,0.616,-10.742,100.830,-24.353,46.781,-15.089
0.111,0.826,0.586,3.662,94.543,-27.710,51.654,-6.627
0.341,0.749,0.523,-11.902,77.209,-25.757,52.930,3.201
0.550,0.746,0.521,-3.296,54.260,-19.409,52.515,13.631
0.501,0.701,0.511,11.841,34.851,-9.094,49.121,22.072
0.473,0.612,0.580,10.132,0.305,0.305,44.728,27.855
0.445,0.693,0.391,11.475,7.446,-4.639,44.411,30.042
0.443,0.589,0.356,-4.456,2.991,-1.282,44.754,30.348
0.442,0.735,0.465,-19.348,-4.272,-0.793,45.953,29.537
0.444,0.732,0.467,-16.235,-2.258,4.028,48.361,28.852
0.405,0.771,0.415,-21.851,-0.549,2.502,49.303,27.718
0.381,0.802,0.438,-10.193,6.592,3.357,51.177,25.379
0.414,0.753,0.365,4.639,3.174,2.502,52.404,25.225
0.395,0.758,0.356,-7.385,0.122,0.061,54.000,24.740


0.329,0.808,0.377,-2.014,1.160,3.418,55.312,23.606
0.361,0.830,0.382,8.545,3.357,1.282,56.214,23.326
0.448,0.770,0.465,11.353,1.953,2.014,55.181,23.448
0.752,1.036,0.556,-49.744,-18.372,39.673,52.984,26.004
0.478,1.001,0.480,-6.409,-42.908,76.294,52.644,26.480
0.251,0.984,0.317,47.974,-58.838,78.735,55.033,24.660
-0.027,0.969,0.385,62.622,-81.360,54.626,60.408,18.481
-0.235,0.896,0.397,104.309,-104.431,24.414,66.839,6.411
-0.394,0.776,0.374,142.639,-104.065,-2.502,67.149,-5.911
-0.601,0.309,0.426,149.902,-93.018,-12.085,55.594,-20.582
-0.691,0.104,0.485,143.066,-75.867,-30.457,39.224,-35.655
-0.772,0.068,0.568,110.840,-56.274,-51.819,22.200,-47.679
-0.816,0.103,0.566,98.572,-56.946,-58.167,9.368,-53.559
-0.897,0.135,0.521,62.317,-59.998,-67.383,6.103,-55.546
-0.915,0.157,0.462,66.833,-58.777,-75.378,6.599,-57.478
-0.907,0.243,0.366,50.537,-43.823,-84.229,9.017,-60.272
-0.741,0.366,0.272,34.546,-37.598,-89.539,13.277,-61.805
-0.656,0.348,0.218,5.249,-36.438,-78.613,17.760,-61.806
-0.717,0.437,0.189,0.183,-28.015,-62.317,23.566,-60.028
-0.711,0.595,0.127,8.850,-13.733,-45.532,30.734,-55.749
-0.729,0.585,0.170,-8.667,-3.662,0.366,34.123,-53.423
-0.757,0.602,0.171,10.681,1.465,1.648,36.609,-51.541
-0.749,0.598,0.188,5.005,-0.488,-1.831,38.259,-50.033
-0.748,0.555,0.183,7.812,1.831,-1.892,37.354,-50.639
-0.749,0.550,0.202,3.906,2.869,-2.136,36.703,-51.101
-0.746,0.568,0.209,7.141,5.798,-0.305,36.311,-51.228
-0.778,0.561,0.153,11.658,12.390,2.808,35.686,-52.046
-0.679,0.544,0.200,-5.005,17.517,56.885,36.101,-51.466
-0.663,0.396,0.124,-18.738,27.771,96.252,35.073,-52.745
-0.752,0.411,0.195,-36.011,50.110,114.502,32.953,-54.790
-0.863,0.185,0.316,-42.297,64.392,102.417,26.567,-59.409
-0.807,0.121,0.430,-68.542,72.632,85.571,18.833,-63.465
-0.722,0.029,0.483,-85.083,70.984,67.505,12.207,-62.915
-0.690,0.107,0.692,-80.078,62.012,52.551,6.946,-57.400
-0.652,0.292,0.807,-100.281,52.979,39.063,8.332,-49.250
-0.568,0.338,0.732,-120.483,51.880,26.367,11.464,-43.029
-0.507,0.530,0.645,-123.047,65.430,-3.357,18.644,-37.565
-0.403,0.729,0.508,-100.525,88.562,-24.841,28.822,-32.934
-0.219,0.898,0.617,-53.467,113.647,-21.118,39.528,-25.656
0.004,0.983,0.651,-45.471,115.051,-23.254,49.624,-15.841
0.190,1.003,0.596,-13.000,97.778,-23.743,56.287,-5.649
0.342,0.923,0.555,-15.625,81.055,-24.658,57.339,4.028
0.517,0.685,0.407,4.517,51.208,-25.818,55.735,14.029
0.536,0.652,0.488,-1.526,30.884,-18.738,51.559,22.383
0.576,0.727,0.572,7.080,17.456,-16.296,46.595,28.663
0.509,0.740,0.432,-7.324,-5.188,-2.869,44.429,32.275
0.474,0.717,0.321,-5.188,5.798,-2.686,45.663,31.908
0.404,0.801,0.387,-29.541,-1.160,9.521,48.894,29.707
0.405,0.773,0.347,-11.536,-1.831,2.747,52.462,27.969
0.414,0.793,0.354,-12.329,-3.601,3.906,54.423,26.596
0.409,0.858,0.328,-3.113,1.221,3.662,56.172,24.870
0.400,0.796,0.311,3.906,1.160,3.052,56.774,25.038


0.362,0.816,0.350,2.747,3.540,1.282,57.516,24.199
0.414,0.828,0.349,6.470,3.357,0.793,57.838,24.011
0.660,0.954,0.434,-14.771,-3.662,29.419,55.473,26.462
0.574,1.000,0.451,32.104,-39.185,51.819,54.581,27.078
0.350,0.920,0.508,37.903,-69.763,41.931,54.399,26.030
0.133,0.988,0.486,65.857,-97.229,6.775,56.611,21.795
0.011,0.904,0.531,102.661,-123.230,-24.414,59.486,13.974
-0.205,0.792,0.550,134.583,-128.174,-44.250,59.829,3.983
-0.439,0.329,0.548,145.020,-124.268,-66.528,54.194,-7.723
-0.543,0.214,0.603,98.022,-107.483,-84.961,41.593,-20.389
-0.672,0.172,0.559,80.750,-100.098,-75.928,27.258,-34.375
-0.802,0.102,0.435,89.233,-88.684,-63.965,14.065,-46.933
-0.871,0.231,0.421,55.176,-71.289,-49.255,11.533,-53.432
-0.877,0.268,0.379,32.471,-51.208,-46.936,11.831,-58.777
-0.833,0.296,0.298,5.005,-44.128,-52.917,13.566,-62.311
-0.905,0.365,0.206,9.949,-52.979,-62.988,17.307,-63.414
-0.707,0.520,0.181,-31.677,-33.508,-72.937,22.565,-61.583
-0.740,0.547,0.044,2.136,-20.386,-70.923,27.893,-59.494
-0.668,0.657,0.042,-0.793,-10.925,-43.030,34.369,-54.634
-0.726,0.612,0.152,23.560,-5.188,-0.122,39.151,-50.101
-0.719,0.588,0.054,26.611,1.526,-0.488,39.993,-49.652
-0.740,0.609,0.141,21.545,1.648,0.427,40.591,-48.797
-0.742,0.610,0.163,0.854,2.014,0.366,39.170,-49.797
-0.728,0.577,0.150,15.381,5.798,2.319,38.735,-50.226
-0.707,0.622,0.178,2.197,7.080,3.479,39.012,-49.413
-0.689,0.618,0.128,-6.348,13.245,24.719,39.621,-48.847
-0.590,0.602,0.047,-25.879,24.170,85.754,41.235,-47.685
-0.714,0.544,0.059,-45.593,47.180,116.821,41.139,-48.118
-0.878,0.287,0.192,-31.677,66.711,102.844,35.246,-53.887
-0.900,0.190,0.266,-60.913,70.007,74.524,27.374,-60.874
-0.889,0.149,0.301,-89.050,64.514,44.922,18.576,-67.129
-0.880,0.246,0.411,-73.486,62.195,24.658,13.137,-67.650
-0.817,0.335,0.510,-78.613,54.077,5.981,13.646,-63.356
-0.747,0.399,0.551,-70.374,47.485,-2.686,16.653,-57.754
-0.659,0.506,0.566,-70.007,57.373,-7.935,21.823,-50.882
-0.624,0.652,0.481,-80.078,106.201,-12.512,28.107,-45.139
-0.451,0.808,0.457,-74.341,121.948,-26.184,36.286,-38.368
-0.213,0.842,0.506,-20.569,125.549,-33.936,45.104,-29.409
0.135,0.918,0.582,-8.728,124.207,-33.386,54.097,-16.853
0.372,0.771,0.459,27.832,101.440,-21.301,58.947,-2.294
0.552,0.761,0.484,18.799,76.111,-15.869,56.234,12.354
0.581,0.655,0.444,-10.559,36.011,-10.315,50.460,24.048
0.519,0.697,0.660,18.860,1.648,-2.258,45.053,29.775
0.423,0.811,0.303,-57.129,15.381,-5.432,46.169,30.782
0.454,0.733,0.448,9.521,-5.066,-2.136,46.894,29.880
0.430,0.769,0.468,-7.263,2.258,-10.254,48.968,27.221
0.372,0.653,0.429,-2.869,5.432,-0.854,51.572,26.332
0.359,0.760,0.411,-26.978,-4.089,3.052,50.686,25.395
0.405,0.779,0.432,-14.893,-4.395,4.272,51.658,24.518


0.332,0.828,0.414,5.371,2.319,1.953,53.468,23.005
0.323,0.826,0.424,4.822,5.676,0.122,55.424,21.464
0.346,0.723,0.424,8.728,-1.587,-1.648,55.104,21.428
0.538,0.916,0.508,-6.470,-11.169,17.029,54.541,22.371
0.648,0.992,0.511,27.954,-26.367,49.438,52.717,25.275
0.429,0.986,0.588,21.545,-48.462,72.693,52.023,25.312
0.039,0.817,0.540,51.208,-94.177,31.494,53.846,21.112
-0.147,0.770,0.446,80.505,-127.502,9.155,57.175,13.216
-0.392,0.587,0.333,105.530,-134.521,-19.897,58.868,-1.099
-0.618,0.380,0.372,172.974,-114.319,-20.813,51.558,-20.060
-0.752,0.078,0.382,153.625,-86.609,-21.606,36.554,-38.792
-0.801,0.004,0.439,101.746,-64.209,-35.095,19.387,-54.150
-0.953,-0.041,0.414,80.627,-50.598,-41.382,6.846,-62.012
-0.959,-0.074,0.402,58.899,-41.565,-40.894,-0.489,-64.718
-0.934,-0.008,0.331,57.800,-44.983,-46.082,-1.713,-66.448
-0.994,0.124,0.241,38.208,-42.175,-55.725,0.003,-70.134
-0.931,0.248,0.225,38.086,-30.457,-61.218,4.135,-72.097
-0.925,0.356,0.234,23.315,-25.208,-61.829,10.401,-71.621
-0.864,0.383,0.207,29.114,-24.536,-58.777,16.202,-68.889
-0.823,0.508,0.254,27.771,-19.836,-57.251,22.219,-63.649
-0.685,0.491,0.179,31.067,-16.907,-66.833,27.013,-59.453
-0.693,0.437,0.082,6.348,-14.526,-37.659,30.016,-57.442
-0.770,0.512,0.125,-18.005,-8.545,4.395,32.651,-55.395
-0.798,0.513,0.073,8.667,2.136,-7.019,33.232,-55.736
-0.773,0.614,0.144,7.263,3.784,-4.395,34.124,-55.066
-0.793,0.633,0.156,4.456,6.714,-2.075,35.607,-53.409
-0.767,0.591,0.156,-0.183,6.165,0.732,36.529,-52.403
-0.747,0.510,0.125,2.808,8.911,5.493,36.838,-51.857
-0.638,0.437,0.069,-14.038,13.245,32.043,35.992,-52.885
-0.577,0.635,0.122,-65.857,25.391,87.585,38.109,-50.833
-0.614,0.375,0.100,-48.096,40.649,100.586,36.867,-52.166
-0.854,0.306,0.104,-60.913,58.105,85.510,32.879,-56.186
-0.899,0.259,0.258,-77.271,73.914,66.040,27.700,-60.279
-0.947,0.241,0.400,-78.979,82.031,36.804,19.026,-66.197
-0.979,0.172,0.462,-50.842,59.021,4.150,14.153,-66.928
-0.926,0.333,0.472,-116.028,68.420,-22.461,13.857,-63.337
-0.706,0.510,0.417,-118.347,109.741,-24.414,17.572,-58.797
-0.548,0.661,0.316,-115.723,133.240,-26.428,25.142,-53.186
-0.355,0.847,0.368,-62.988,134.888,-28.259,38.243,-41.864
-0.068,0.813,0.507,-27.283,138.000,-26.184,50.628,-27.255
0.211,0.951,0.551,10.010,117.065,-26.550,59.848,-11.598
0.305,0.808,0.482,13.245,82.886,-26.550,60.818,1.348
0.428,0.825,0.482,10.864,56.519,-16.907,57.043,12.474
0.463,0.775,0.508,-6.226,39.490,-2.686,53.754,19.724
0.531,0.675,0.624,31.555,9.583,-0.427,48.636,24.847
0.276,0.706,0.453,-2.136,-0.305,-10.254,48.095,25.081
0.376,0.765,0.452,6.714,3.906,-0.671,48.118,24.806
0.379,0.670,0.482,2.197,-1.099,-3.540,47.863,24.295
0.323,0.727,0.421,-17.090,-0.977,-4.211,51.761,21.773
0.373,0.782,0.448,-34.912,-6.409,3.662,51.817,22.797
0.374,0.784,0.379,-14.709,-2.930,-1.770,52.706,22.888
0.384,0.803,0.378,-4.089,-2.502,-0.427,54.840,22.564


0.355,0.778,0.416,12.573,3.357,2.197,55.063,22.757
0.364,0.783,0.442,10.559,3.479,-0.366,55.207,22.642
0.735,0.918,0.615,-10.010,-15.991,31.372,51.528,25.991
0.577,1.158,0.603,-7.690,-46.570,62.988,51.390,25.873
0.259,1.025,0.487,40.833,-77.942,64.636,53.349,23.557
-0.023,0.872,0.442,91.980,-109.558,28.931,56.321,18.928
-0.232,0.805,0.418,129.761,-127.869,-11.719,62.203,7.660
-0.495,0.710,0.454,153.320,-122.803,-31.067,61.310,-7.248
-0.620,0.257,0.391,152.893,-102.234,-41.016,50.395,-23.519
-0.704,0.085,0.498,112.366,-84.412,-51.208,34.484,-38.705
-0.830,0.136,0.538,86.182,-73.547,-50.354,20.086,-49.973
-0.907,0.034,0.441,66.345,-57.739,-51.697,8.139,-57.674
-0.898,0.058,0.359,47.791,-52.124,-53.650,4.704,-60.852
-0.953,0.100,0.288,34.729,-42.542,-57.129,4.773,-65.193
-0.923,0.224,0.297,27.527,-32.104,-65.186,6.051,-68.559
-0.806,0.312,0.209,1.038,-26.550,-69.031,10.459,-69.409
-0.869,0.433,0.159,18.066,-23.132,-67.749,16.224,-68.033
-0.789,0.540,0.143,23.315,-26.550,-70.374,23.432,-63.189
-0.633,0.554,0.134,6.531,-20.691,-65.430,30.171,-57.816
-0.693,0.628,0.085,5.249,-9.949,-31.128,35.434,-53.381
-0.735,0.665,0.101,16.052,2.563,5.981,39.591,-49.519
-0.746,0.613,0.161,20.386,4.517,-0.366,40.840,-48.215
-0.735,0.635,0.192,1.526,2.686,3.235,40.670,-48.224
-0.723,0.595,0.185,6.592,5.676,2.380,39.840,-48.612
-0.720,0.589,0.226,4.578,6.226,0.977,38.831,-48.907
-0.719,0.611,0.239,-2.441,3.967,-1.648,38.858,-48.394
-0.680,0.591,0.224,-4.639,5.310,-0.061,38.756,-48.193
-0.677,0.542,0.157,-2.197,7.202,5.188,38.622,-48.405
-0.643,0.649,0.141,-5.859,19.043,42.664,40.289,-47.273
-0.668,0.608,0.111,-31.982,34.180,88.257,41.078,-47.183
-0.759,0.423,0.111,-29.053,51.147,106.750,38.487,-50.274
-0.790,0.235,0.262,-43.030,73.059,98.999,33.196,-54.836
-0.779,0.200,0.338,-80.444,78.430,67.749,25.271,-60.703
-0.812,0.275,0.515,-93.689,78.613,36.682,18.581,-61.999
-0.790,0.481,0.647,-106.628,86.121,10.620,18.176,-56.155
-0.681,0.657,0.678,-82.642,94.177,4.028,23.228,-48.493
-0.435,0.750,0.618,-79.102,91.858,0.671,30.551,-39.694
-0.294,0.763,0.514,-94.849,97.778,-5.127,38.796,-31.321
-0.194,0.869,0.430,-47.974,102.478,-15.320,47.803,-23.017
-0.071,0.844,0.527,-11.353,112.976,-13.672,54.358,-14.491
0.173,0.832,0.558,32.532,108.826,-16.357,58.024,-5.672
0.354,0.812,0.561,31.006,83.679,-13.428,58.063,3.805
0.382,0.784,0.524,3.967,57.800,-15.503,54.588,12.055
0.471,0.762,0.528,24.231,38.818,-4.883,51.115,19.689
0.512,0.687,0.620,26.184,20.142,-0.671,47.214,24.482
0.519,0.731,0.593,-7.935,1.160,-4.517,45.174,26.804
0.408,0.690,0.454,6.470,-2.808,-0.916,44.609,27.864
0.364,0.713,0.500,-36.377,-2.014,4.944,45.027,26.877
0.404,0.807,0.463,-31.494,-0.854,-0.671,48.208,25.444
0.357,0.774,0.402,-16.724,-5.127,-1.892,51.445,23.682
0.384,0.783,0.365,-14.404,-2.747,0.244,53.280,23.147


0.349,0.764,0.416,13.611,6.775,2.563,54.601,22.914
0.340,0.727,0.458,26.672,0.977,-1.038,54.465,22.450
0.557,0.889,0.625,1.709,-2.258,11.475,51.943,23.939
0.758,1.184,0.760,-13.733,-11.597,48.401,49.724,25.401
0.473,1.105,0.622,2.563,-24.231,73.120,50.171,24.741
0.203,0.752,0.452,69.580,-60.486,60.669,51.161,23.246
-0.090,0.756,0.431,81.543,-100.220,18.921,55.249,16.915
-0.294,0.687,0.487,106.812,-113.464,-6.104,58.615,4.333
-0.470,0.589,0.469,147.217,-117.371,-15.808,54.978,-11.047
-0.591,0.220,0.410,135.498,-105.591,-26.611,44.312,-26.647
-0.788,0.121,0.612,108.948,-90.027,-43.396,28.994,-39.992
-0.929,0.009,0.509,98.511,-68.604,-49.072,15.320,-51.497
-0.928,0.068,0.443,75.012,-55.420,-46.082,6.267,-58.049
-0.893,0.091,0.380,50.781,-43.945,-42.114,4.074,-60.935
-0.892,0.058,0.298,41.138,-34.302,-47.058,3.224,-65.677
-0.918,0.100,0.229,42.480,-26.550,-54.321,4.666,-69.100
-0.947,0.280,0.176,58.350,-15.747,-63.904,7.911,-71.733
-0.804,0.370,0.290,11.597,5.554,-74.463,12.329,-70.237
-0.758,0.324,0.284,40.894,-3.845,-84.106,16.774,-67.023
-0.609,0.421,0.295,-5.127,-16.602,-91.553,22.996,-60.789
-0.711,0.605,0.212,-31.006,-14.221,-15.930,29.206,-54.811
-0.768,0.636,0.203,10.437,-6.226,11.108,33.386,-52.022
-0.742,0.503,0.137,22.217,0.427,0.000,36.245,-50.589
-0.768,0.608,0.201,3.662,4.517,1.831,37.359,-50.420
-0.763,0.610,0.253,2.075,3.967,-1.953,36.876,-50.711
-0.746,0.613,0.267,-2.808,4.700,-0.610,36.640,-50.516
-0.734,0.589,0.255,1.953,5.066,0.061,37.405,-49.078
-0.747,0.634,0.192,-0.916,11.780,21.729,37.893,-48.659
-0.693,0.492,0.159,0.061,28.259,69.031,37.369,-49.584
-0.620,0.483,0.212,-27.893,38.696,107.910,37.048,-49.989
-0.684,0.274,0.264,-33.203,53.162,121.643,33.294,-53.157
-0.792,0.047,0.391,-46.570,61.218,107.178,23.539,-59.363
-0.834,0.120,0.588,-79.102,59.998,80.627,15.760,-59.537
-0.802,0.133,0.703,-107.483,48.401,53.528,8.879,-56.899
-0.736,0.164,0.713,-104.126,37.170,39.001,6.660,-52.371
-0.697,0.273,0.609,-111.877,30.090,19.165,9.714,-48.630
-0.655,0.425,0.467,-139.038,52.551,-5.920,14.607,-47.122
-0.560,0.519,0.454,-115.784,91.431,-32.532,21.697,-45.150
-0.367,0.717,0.577,-81.665,119.751,-56.824,31.936,-38.540
-0.005,0.985,0.612,-32.837,128.540,-66.711,45.075,-25.112
0.223,0.926,0.585,-3.052,105.286,-50.659,53.392,-10.413
0.419,0.914,0.561,17.151,75.073,-40.405,56.433,3.639
0.492,0.859,0.516,-5.798,41.992,-30.090,55.437,14.608
0.512,0.784,0.471,3.540,22.888,-13.245,52.286,21.945
0.503,0.763,0.537,10.620,18.616,-9.033,49.485,26.165
0.438,0.685,0.480,4.150,-1.770,-2.502,47.906,27.841
0.440,0.781,0.447,-9.094,15.564,-6.165,48.050,27.875
0.391,0.679,0.407,-2.991,8.423,2.075,48.440,27.144
0.409,0.734,0.413,4.883,-2.869,0.427,49.901,26.496
0.234,0.724,0.358,24.475,-7.812,-0.061,53.048,23.820
0.326,0.598,0.266,4.700,2.197,-0.732,54.045,23.747
0.390,0.725,0.338,-32.776,-14.404,3.235,55.194,23.661
0.402,0.797,0.388,-28.503,-4.822,0.244,56.106,23.248


0.340,0.789,0.408,1.831,3.967,3.906,55.203,24.309
0.436,0.827,0.464,-4.761,1.465,6.470,54.479,24.008
0.790,0.969,0.636,-9.521,-25.269,44.678,51.052,26.914
0.536,1.136,0.630,-17.395,-56.580,74.097,51.132,26.102
0.149,1.128,0.488,31.738,-95.337,63.232,54.195,22.455
-0.130,0.964,0.328,103.149,-113.037,36.255,59.430,16.028
-0.317,0.784,0.333,133.301,-114.624,9.338,65.891,3.116
-0.479,0.591,0.346,159.119,-106.201,-2.319,64.081,-11.625
-0.670,0.308,0.396,137.817,-89.600,-23.010,51.247,-28.039
-0.767,0.156,0.481,106.079,-78.979,-39.001,34.043,-42.835
-0.962,0.129,0.451,76.660,-66.040,-39.917,19.578,-54.530
-0.828,0.170,0.380,66.040,-57.617,-35.889,11.810,-59.891
-0.842,0.160,0.333,49.072,-51.514,-40.405,9.245,-62.678
-0.942,0.188,0.259,34.790,-46.509,-54.321,9.540,-66.380
-0.942,0.345,0.267,35.706,-26.367,-64.331,12.913,-66.982
-0.937,0.407,0.225,43.091,-18.616,-70.740,16.060,-67.136
-0.825,0.477,0.249,40.710,-20.142,-63.538,20.553,-64.552
-0.771,0.465,0.251,33.691,-20.447,-59.021,25.120,-60.529
-0.685,0.497,0.230,17.700,-21.606,-58.105,28.810,-57.142
-0.742,0.497,0.169,-16.785,-14.587,-15.015,31.553,-54.770
-0.774,0.531,0.136,12.573,-3.845,0.000,32.923,-54.243
-0.773,0.573,0.176,1.099,-0.061,-1.221,34.461,-53.312
-0.759,0.593,0.196,8.606,3.601,1.282,35.103,-52.999
-0.763,0.557,0.227,9.888,5.188,1.404,35.532,-52.313
-0.752,0.540,0.223,2.197,4.944,2.319,35.639,-51.683
-0.779,0.632,0.066,9.277,9.827,4.089,36.535,-51.483
-0.697,0.518,0.141,2.930,30.701,43.396,36.280,-51.933
-0.639,0.544,0.167,-39.978,35.828,83.740,37.349,-51.096
-0.637,0.503,0.188,-50.171,42.725,109.070,38.039,-50.497
-0.733,0.344,0.240,-37.537,64.758,102.600,34.231,-52.914
-0.780,0.142,0.372,-49.744,75.439,75.134,27.431,-56.987
-0.862,0.226,0.482,-70.679,83.008,51.453,20.359,-59.612
-0.769,0.171,0.548,-91.980,88.684,40.588,13.981,-59.333
-0.567,0.275,0.637,-111.206,85.083,12.512,12.725,-53.601
-0.570,0.538,0.725,-108.032,78.186,-20.935,18.312,-45.920
-0.413,0.811,0.542,-74.463,83.679,-17.944,28.018,-37.352
-0.285,0.972,0.459,-58.044,91.736,-3.235,40.955,-27.603
-0.106,0.966,0.490,-34.363,105.347,2.197,51.575,-19.117
0.104,0.969,0.536,-5.554,106.506,-15.869,60.019,-9.386
0.370,0.849,0.542,20.996,79.773,-46.265,61.615,1.114
0.486,0.909,0.581,0.061,59.326,-17.456,57.933,11.308
0.384,0.794,0.504,4.944,30.029,-6.226,54.119,18.017
0.427,0.689,0.462,12.878,26.123,-9.460,50.491,23.379
0.538,0.675,0.461,9.888,23.621,-5.493,48.434,26.588
0.470,0.713,0.586,7.324,7.080,-2.319,46.627,27.416
0.398,0.798,0.455,0.000,-4.333,-3.967,46.942,27.765
0.432,0.765,0.441,-9.399,-4.028,1.404,47.818,27.483
0.406,0.665,0.469,-7.324,0.610,7.324,48.611,25.801
0.377,0.762,0.386,-22.827,1.709,4.395,51.476,24.959
0.374,0.771,0.362,-17.151,-4.089,2.319,52.231,25.076
0.384,0.838,0.392,-4.639,-2.869,1.282,53.726,24.157


0.367,0.828,0.421,6.592,3.601,1.831,55.898,22.876
0.416,0.883,0.452,5.005,0.732,5.676,55.987,22.620
0.649,0.810,0.460,-3.967,-0.854,26.855,53.289,25.679
0.649,0.998,0.606,16.724,-32.532,63.904,51.048,27.380
0.331,1.043,0.511,25.879,-74.280,62.195,52.342,25.698
0.079,0.922,0.479,52.368,-100.586,36.377,54.671,21.686
-0.112,0.776,0.425,113.220,-113.098,-5.798,59.155,12.574
-0.350,0.753,0.432,147.278,-104.858,-13.367,62.121,-0.743
-0.465,0.661,0.477,149.536,-102.478,-1.770,57.244,-13.244
-0.673,0.105,0.497,146.912,-98.022,2.014,43.336,-28.585
-0.770,-0.044,0.490,112.061,-79.956,-30.396,26.569,-43.229
-0.864,-0.012,0.490,86.304,-59.021,-41.870,11.840,-53.122
-0.942,-0.136,0.396,52.429,-41.199,-48.279,-1.313,-60.014
-0.927,-0.073,0.362,52.124,-35.706,-55.664,-3.864,-63.353
-0.963,0.076,0.329,44.250,-30.090,-62.683,-2.053,-66.812
-0.880,0.132,0.290,31.433,-28.687,-68.665,-0.012,-69.645
-0.888,0.256,0.255,34.790,-27.100,-77.026,5.788,-70.476
-0.822,0.457,0.271,36.560,-22.949,-83.740,13.862,-67.532
-0.705,0.498,0.185,27.954,-23.682,-81.543,21.304,-63.057
-0.700,0.629,0.183,6.409,-16.357,-75.806,29.593,-56.708
-0.697,0.657,0.147,-21.973,-10.376,-10.498,36.505,-50.924
-0.760,0.665,0.139,14.343,-2.808,4.333,39.834,-48.471
-0.750,0.644,0.152,5.310,0.549,3.479,41.117,-47.455
-0.747,0.596,0.192,16.724,1.465,3.418,40.298,-48.237
-0.746,0.527,0.199,-2.625,1.953,-0.061,38.295,-49.938
-0.752,0.548,0.219,12.634,4.272,-2.930,36.825,-50.872
-0.743,0.595,0.266,5.737,6.531,-0.916,36.037,-50.896
-0.748,0.582,0.247,2.136,4.395,0.122,35.729,-50.815
-0.730,0.625,0.212,-4.395,5.859,6.836,36.983,-49.584
-0.604,0.358,0.121,-47.424,4.517,51.086,36.218,-50.614
-0.842,0.633,0.041,-27.466,36.499,86.426,36.327,-52.008
-0.750,0.371,0.034,-41.260,63.538,92.651,33.920,-55.273
-0.769,0.319,0.203,-45.044,67.749,94.421,29.346,-59.758
-0.781,0.251,0.355,-45.227,68.542,78.003,26.168,-61.625
-0.731,0.269,0.446,-93.628,70.862,53.040,20.707,-62.249
-0.827,0.237,0.445,-60.364,65.552,29.663,17.439,-59.849
-0.775,0.329,0.725,-91.309,71.106,2.319,16.432,-54.140
-0.637,0.540,0.816,-94.849,77.332,-19.714,19.721,-46.748
-0.412,0.797,0.622,-120.544,82.581,-20.874,27.108,-39.387
-0.354,0.865,0.471,-56.641,100.403,-10.864,36.525,-30.809
-0.209,0.930,0.528,-36.926,109.497,-2.502,46.990,-22.117
-0.038,0.845,0.608,7.874,107.361,-7.935,54.530,-13.898
0.180,0.844,0.612,7.019,93.262,-20.325,57.046,-5.829
0.361,0.840,0.533,3.784,63.477,-22.949,56.382,4.054
0.462,0.756,0.479,-8.667,53.284,-13.550,53.484,13.651
0.531,0.724,0.493,12.878,45.593,-6.714,50.432,21.936
0.517,0.619,0.481,9.644,29.602,-1.343,47.125,27.797
0.482,0.660,0.634,18.005,5.188,-1.282,43.711,29.929
0.382,0.798,0.455,-6.042,-3.540,-9.399,44.876,28.785
0.398,0.715,0.368,-7.202,-7.874,3.357,46.706,27.621
0.396,0.748,0.489,3.052,-6.897,2.014,48.805,25.285
0.308,0.823,0.431,-31.921,-1.831,0.183,53.423,22.728
0.359,0.715,0.370,-23.560,-4.211,4.944,53.653,23.071
0.373,0.803,0.370,-20.203,-1.282,1.709,54.611,22.266
0.363,0.820,0.377,-6.287,-3.235,2.136,56.544,21.729
0.346,0.818,0.348,-0.549,-1.404,1.343,56.935,22.489


0.347,0.801,0.439,20.081,5.981,1.892,57.107,21.719
0.541,0.874,0.602,-0.977,5.188,9.155,54.297,23.041
0.618,1.111,0.630,6.287,-7.690,33.936,52.757,24.144
0.483,1.048,0.609,13.672,-33.081,62.988,51.721,24.028
0.221,1.014,0.558,21.545,-67.200,57.739,53.104,21.608
-0.026,0.807,0.480,51.758,-98.755,29.236,56.641,15.788
-0.173,0.712,0.459,94.299,-116.760,-0.488,58.830,6.937
-0.385,0.805,0.499,102.661,-110.901,-14.282,58.701,-5.321
-0.556,0.362,0.523,139.404,-95.703,-23.682,49.807,-18.913
-0.691,0.200,0.556,125.793,-76.782,-38.452,37.351,-31.802
-0.701,0.140,0.566,87.708,-71.167,-48.584,25.417,-41.675
-0.791,0.249,0.567,76.111,-64.331,-47.180,15.102,-48.684
-0.897,0.175,0.441,49.438,-49.988,-46.631,11.528,-53.698
-0.937,0.122,0.431,56.091,-40.466,-48.706,10.016,-57.498
-0.869,0.137,0.380,50.537,-37.109,-52.246,9.843,-60.919
-0.887,0.262,0.364,44.617,-36.682,-54.016,10.036,-63.879
-0.922,0.330,0.320,27.649,-32.043,-57.190,12.281,-64.547
-0.819,0.301,0.245,20.935,-31.067,-72.205,15.425,-64.527
-0.772,0.327,0.136,68.054,-22.766,-75.439,18.904,-64.526
-0.730,0.531,0.157,-15.320,-25.452,-63.171,23.937,-62.077
-0.765,0.577,0.155,-13.184,-7.874,-17.029,28.754,-58.801
-0.771,0.574,0.136,13.916,2.563,6.104,32.994,-55.452
-0.786,0.545,0.175,11.536,7.690,3.418,35.555,-52.858
-0.781,0.564,0.253,11.780,7.019,-1.099,35.347,-52.621
-0.765,0.558,0.257,5.798,3.967,-0.549,34.928,-52.428
-0.754,0.602,0.242,-16.357,9.216,-2.136,35.164,-51.528
-0.759,0.549,0.254,9.644,6.897,-0.366,35.229,-50.888
-0.747,0.559,0.251,-3.113,6.531,3.784,35.452,-50.628
-0.733,0.555,0.235,-7.690,10.803,13.306,35.732,-50.470
-0.664,0.455,0.162,-18.066,20.325,57.129,34.873,-51.581
-0.668,0.458,0.137,-37.354,33.875,91.797,34.777,-52.292
-0.687,0.421,0.200,-43.945,52.246,104.370,33.549,-53.639
-0.822,0.177,0.267,-60.608,65.857,95.886,27.181,-59.198
-0.793,0.060,0.361,-69.397,72.571,72.327,19.675,-63.580
-0.857,0.105,0.423,-106.873,74.280,46.509,12.668,-65.115
-0.751,0.233,0.601,-101.990,71.472,25.024,9.034,-61.506
-0.663,0.502,0.767,-116.272,61.584,-5.249,13.518,-52.709
-0.546,0.704,0.649,-65.552,54.260,-26.794,22.508,-44.283
-0.429,0.774,0.535,-46.814,62.317,-25.513,32.340,-35.260
-0.306,0.868,0.481,-40.405,79.956,-22.705,42.460,-27.417
-0.272,0.891,0.428,-8.240,95.703,-21.851,51.168,-21.939
-0.132,0.926,0.511,-0.061,96.191,-20.081,56.812,-15.999
0.029,0.888,0.506,24.353,89.539,-20.264,60.239,-9.529
0.284,0.844,0.488,23.376,79.163,-20.996,61.397,-1.296
0.398,0.747,0.478,27.832,61.462,-15.991,58.751,8.365
0.546,0.696,0.465,8.667,44.006,-9.644,53.959,18.688
0.565,0.742,0.594,4.883,23.926,-3.845,48.234,26.209
0.511,0.768,0.601,-0.061,-1.526,-4.211,45.117,28.995
0.425,0.703,0.440,13.184,-1.282,-3.723,44.776,29.703
0.375,0.709,0.466,-21.240,2.075,2.319,46.064,27.526
0.439,0.667,0.437,-16.479,-1.892,4.456,47.428,26.909
0.373,0.725,0.388,-13.184,-4.456,0.854,49.847,26.062
0.383,0.833,0.392,-19.287,-3.662,-0.793,51.884,24.894
0.374,0.811,0.332,-13.489,-4.761,1.526,54.005,24.713


0.325,0.800,0.432,18.433,3.784,2.686,56.187,22.429
0.392,0.783,0.562,-1.648,4.395,6.531,54.940,21.955
0.647,1.011,0.553,-5.249,-11.902,28.687,53.062,24.075
0.520,1.006,0.608,6.104,-45.105,73.975,51.508,24.180
0.234,1.057,0.546,27.405,-72.998,79.224,53.140,21.829
-0.048,0.816,0.455,80.688,-96.802,50.842,56.752,16.903
-0.233,0.774,0.368,111.084,-106.995,12.268,60.905,6.491
-0.471,0.616,0.351,133.545,-99.426,-11.658,61.152,-8.001
-0.610,0.329,0.431,144.531,-87.830,-23.560,50.278,-24.429
-0.719,0.157,0.530,122.131,-75.134,-41.260,35.414,-38.926
-0.797,0.111,0.540,90.332,-62.744,-52.307,20.801,-49.573
-0.865,0.180,0.536,79.773,-51.697,-51.331,12.111,-53.927
-0.925,0.143,0.516,55.115,-37.476,-46.631,8.552,-56.337
-1.036,0.257,0.648,80.017,-17.944,-45.105,9.214,-57.099
-0.836,0.086,0.434,45.593,-38.879,-39.246,8.934,-58.593
-0.897,0.066,0.309,13.489,-53.894,-49.316,7.568,-61.743
-0.875,0.228,0.199,10.010,-41.443,-70.251,9.114,-64.822
-0.768,0.316,0.169,20.752,-21.118,-94.971,11.088,-68.777
-0.642,0.456,0.168,40.344,-17.761,-118.164,17.955,-66.847
-0.662,0.536,0.050,-25.513,-18.433,-72.510,27.085,-60.838
-0.799,0.825,0.132,6.104,-1.770,11.169,36.178,-52.587
-0.737,0.578,0.145,23.682,3.174,1.221,39.731,-49.255
-0.751,0.647,0.200,4.333,1.038,4.089,40.818,-48.159
-0.734,0.553,0.181,16.174,4.700,1.526,40.103,-48.361
-0.742,0.579,0.230,1.526,3.784,1.282,37.626,-50.125
-0.736,0.614,0.235,-1.648,4.211,-4.700,37.834,-49.412
-0.728,0.631,0.203,-1.709,5.066,-0.610,37.838,-49.351
-0.701,0.591,0.121,-9.277,8.179,27.954,38.726,-48.840
-0.637,0.559,0.106,-26.489,16.235,81.360,39.740,-48.430
-0.658,0.481,0.085,-41.260,31.433,106.995,39.206,-49.584
-0.852,0.396,0.174,-37.720,51.270,99.854,35.042,-53.805
-0.904,0.165,0.235,-56.641,67.688,79.956,27.238,-60.735
-0.912,0.040,0.305,-72.327,78.247,58.533,17.553,-67.973
-0.790,0.109,0.444,-95.642,85.754,37.170,11.017,-68.544
-0.713,0.165,0.623,-130.127,89.111,7.690,7.410,-63.183
-0.679,0.483,0.793,-120.789,69.946,-9.949,11.925,-53.269
-0.508,0.687,0.750,-88.745,55.481,-21.484,21.072,-42.032
-0.393,0.700,0.579,-46.143,61.096,-20.813,29.637,-33.858
-0.311,0.813,0.524,-62.561,86.914,-17.517,39.523,-26.645
-0.192,0.897,0.503,-33.691,109.192,-21.667,48.476,-19.849
-0.042,0.836,0.541,-10.864,112.183,-28.687,54.187,-13.551
0.353,0.937,0.743,-26.306,103.149,-40.649,56.352,-2.632
0.549,0.819,0.583,11.108,63.843,-46.692,54.796,8.990
0.680,0.693,0.563,-10.376,40.039,-17.212,48.791,20.645
0.655,0.778,0.649,-1.404,24.353,-12.939,43.643,28.577
0.461,0.609,0.536,-6.348,-2.319,-1.892,41.239,32.223
0.483,0.726,0.464,7.385,-0.183,-5.249,41.451,32.526
0.500,0.724,0.477,-14.893,0.854,-4.333,43.510,30.632
0.470,0.810,0.446,-17.029,2.686,-2.502,46.588,29.002
0.444,0.697,0.370,-6.409,6.531,7.141,48.825,28.885
0.452,0.699,0.403,4.883,-1.892,6.042,49.278,28.879
0.363,0.701,0.333,8.606,-5.371,-2.136,51.362,27.695
0.452,0.777,0.381,0.916,-6.653,0.061,51.738,27.878
0.427,0.775,0.364,-7.996,-4.211,-0.549,52.689,27.158


0.406,0.721,0.473,-6.714,5.493,8.484,52.734,26.172
0.572,0.809,0.459,-50.110,4.944,27.222,50.926,27.896
0.676,0.931,0.572,7.874,-20.935,56.458,49.164,29.121
0.337,1.005,0.507,7.690,-57.007,75.745,50.764,26.431
0.128,0.966,0.442,43.030,-84.595,62.500,54.800,22.159
-0.167,0.899,0.416,75.928,-109.863,28.687,60.306,12.856
-0.358,0.750,0.310,128.662,-119.019,-1.465,65.152,-0.879
-0.517,0.601,0.347,143.188,-99.487,-3.113,61.172,-14.430
-0.657,0.226,0.498,137.390,-82.764,-6.226,46.916,-30.105
-0.749,0.007,0.483,113.770,-68.970,-29.663,29.413,-45.042
-0.830,-0.020,0.406,104.309,-59.570,-48.401,14.045,-55.177
-0.927,0.022,0.459,62.866,-49.622,-50.842,3.684,-59.544
-0.931,0.067,0.402,60.791,-43.579,-55.847,1.146,-63.003
-1.033,0.208,0.336,51.514,-35.645,-51.270,3.919,-66.383
-0.908,0.193,0.300,37.842,-28.870,-60.181,6.846,-67.476
-0.850,0.207,0.229,51.819,-33.997,-67.871,9.735,-68.907
-0.818,0.358,0.210,32.227,-37.598,-76.721,14.377,-68.174
-0.712,0.411,0.168,15.503,-35.217,-83.008,18.898,-65.782
-0.678,0.493,0.095,5.188,-24.475,-72.876,25.074,-61.978
-0.757,0.700,0.116,-17.395,-9.399,-4.761,32.979,-55.363
-0.806,0.601,0.085,19.897,1.526,3.479,36.410,-52.660
-0.788,0.594,0.132,2.502,2.991,0.000,37.985,-51.299
-0.782,0.579,0.147,4.761,4.028,3.723,37.983,-51.178
-0.765,0.562,0.182,4.883,4.395,1.099,36.245,-52.615
-0.755,0.525,0.172,5.127,3.906,1.221,35.630,-52.773
-0.736,0.553,0.166,5.798,8.911,6.042,35.515,-52.659
-0.658,0.567,0.102,-17.334,20.630,56.702,36.525,-51.806
-0.560,0.517,0.031,-37.659,46.631,105.957,38.171,-50.763
-0.820,0.266,0.120,-36.865,55.603,112.671,34.149,-54.911
-1.065,0.190,0.235,-48.157,64.148,85.205,26.114,-62.493
-0.845,0.090,0.376,-59.998,67.139,57.068,17.485,-68.300
-0.784,0.297,0.428,-148.682,62.683,45.776,12.850,-67.803
-0.869,0.401,0.624,-133.484,39.856,47.424,13.978,-61.563
-0.723,0.376,0.692,-105.957,28.748,25.269,16.808,-53.100
-0.709,0.498,0.605,-120.605,30.762,-5.798,22.071,-47.500
-0.663,0.592,0.448,-105.103,58.594,-39.673,26.195,-44.495
-0.607,0.817,0.458,-49.500,79.163,-64.880,33.222,-40.412
-0.336,1.086,0.566,-28.809,98.816,-60.913,43.902,-32.431
-0.108,1.088,0.531,-25.024,110.779,-50.110,53.660,-22.660
0.119,1.010,0.512,20.691,102.539,-40.222,60.463,-11.686
0.282,0.925,0.531,23.865,78.735,-31.921,62.481,-0.522
0.411,0.788,0.540,26.245,52.368,-33.264,59.686,9.183
0.535,0.705,0.512,25.757,35.889,-25.818,54.003,18.527
0.556,0.745,0.520,1.038,18.982,-10.376,48.928,25.146
0.446,0.702,0.576,-5.371,-1.038,1.465,45.417,28.120
0.447,0.690,0.472,10.681,0.122,-1.892,44.689,29.368
0.416,0.674,0.476,3.540,0.122,0.732,45.468,28.199
0.430,0.705,0.484,-11.536,-3.723,3.662,46.215,26.928
0.409,0.725,0.481,-18.066,-3.540,-0.549,47.493,26.684
0.401,0.754,0.443,-9.399,-6.470,-2.563,48.730,25.810

