aX,aY,aZ,gX,gY,gZ,Roll,Pitch
0.571,0.483,-0.659,6.592,-8.179,1.160,28.973,34.962
0.629,0.430,-0.802,-26.733,25.635,6.042,25.781,34.871
0.549,0.401,-0.696,28.137,5.188,7.202,25.324,34.713
0.577,0.409,-0.688,-5.615,-2.625,1.465,25.128,34.976
0.511,0.750,-0.607,10.132,-0.610,2.258,28.962,33.470
0.525,0.482,-0.729,-5.920,4.761,4.761,30.438,32.454
0.481,0.592,-0.736,17.456,14.832,2.197,32.805,30.541
0.382,0.649,-0.869,31.860,44.922,5.493,35.230,26.303
0.261,0.772,-0.876,66.101,93.811,26.367,34.649,22.071
0.175,0.784,-0.658,70.313,98.938,40.588,39.461,17.164
-0.074,0.912,-0.543,40.405,92.712,42.664,45.726,9.840
-0.214,0.831,-0.361,28.992,85.022,49.866,53.484,2.072
-0.401,0.823,-0.195,20.386,91.309,56.091,61.360,-7.724
-0.441,0.839,0.006,18.921,99.548,66.895,65.231,-17.524
-0.398,0.622,0.266,-22.217,108.887,76.660,64.578,-24.918
-0.434,0.284,0.571,-5.920,70.984,48.950,55.053,-32.287
-0.505,0.333,0.688,-1.099,24.536,15.808,41.526,-34.568
-0.606,0.406,0.617,-1.099,1.343,-6.165,29.634,-35.732
-0.667,0.376,0.550,-0.427,0.793,-2.014,23.090,-38.300
-0.622,0.426,0.587,3.723,0.854,-1.648,24.228,-39.725
-0.672,0.523,0.609,1.831,0.977,0.427,26.377,-41.224
-0.662,0.521,0.601,-3.967,-2.686,1.648,27.663,-41.300
-0.658,0.408,0.545,-5.188,-1.648,0.671,28.134,-41.052
-0.628,0.431,0.572,3.296,-1.953,-1.404,28.239,-41.202
-0.646,0.490,0.595,3.723,-7.263,-1.770,28.019,-41.221
-0.483,0.457,0.631,4.028,-26.306,-13.611,27.953,-39.346
-0.407,0.488,0.536,6.042,-80.994,-32.776,30.374,-35.924
-0.537,0.580,0.170,0.305,-109.009,-43.457,35.408,-36.604
-0.551,0.728,-0.098,-2.441,-124.390,-36.987,43.986,-37.572
-0.227,0.692,-0.358,-5.005,-132.141,-41.321,55.031,-34.555
-0.156,0.814,-0.749,-18.921,-131.653,-57.312,57.412,-26.130
-0.047,0.703,-0.917,-71.289,-108.459,-30.945,51.474,-15.148
0.229,0.610,-0.918,-42.908,-85.388,-24.597,43.705,-2.825
0.290,0.615,-0.807,-71.472,-61.584,-9.827,38.829,4.143
0.503,0.401,-0.976,-38.757,-48.767,-13.306,31.851,12.768
0.519,0.293,-0.803,8.606,5.188,-3.479,26.620,21.091
0.629,0.329,-0.753,25.024,-2.625,-1.770,22.986,27.549
0.608,0.331,-0.718,-1.038,-1.709,0.427,18.891,32.679
0.600,0.358,-0.675,4.089,-0.793,3.601,19.168,36.116
0.609,0.395,-0.670,5.737,0.183,1.160,20.760,37.818
0.612,0.372,-0.706,3.418,-0.061,0.000,21.571,37.830
0.602,0.392,-0.692,1.953,2.319,3.174,22.517,37.712
0.598,0.372,-0.652,-4.761,0.366,2.930,22.808,37.812
0.601,0.418,-0.636,-15.564,1.160,8.545,23.284,37.874
0.585,0.438,-0.642,1.160,-0.427,2.258,24.558,37.744
0.608,0.573,-0.624,-6.531,-2.075,9.033,27.228,37.429
0.578,0.517,-0.667,2.930,0.000,1.099,29.089,36.352

0.555,0.387,-0.705,9.766,-7.141,-0.183,28.560,35.513
0.556,0.329,-0.738,10.620,11.047,-0.549,26.828,35.025
0.581,0.393,-0.690,3.357,2.136,-1.648,24.290,35.027
0.576,0.406,-0.746,1.770,4.517,-3.113,22.468,34.881
0.593,0.401,-0.666,37.537,2.380,-16.357,22.693,35.557
0.559,0.384,-0.750,35.461,0.488,-4.211,23.348,35.297
0.524,0.538,-0.847,4.700,25.085,-2.502,24.696,32.989
0.398,0.586,-0.925,47.913,67.200,2.930,26.640,29.172
0.256,0.666,-0.883,67.505,94.177,10.254,29.614,23.273
0.182,0.717,-0.850,68.237,101.318,22.278,33.682,17.515
-0.021,0.852,-0.692,51.880,111.267,42.664,39.280,10.544
-0.139,0.799,-0.408,48.706,116.089,56.885,46.820,3.839
-0.325,0.745,-0.093,36.011,102.844,60.608,56.444,-4.640
-0.425,0.820,0.213,27.771,105.530,57.007,67.443,-15.132
-0.384,0.515,0.436,12.756,90.942,50.964,66.008,-23.821
-0.502,0.400,0.728,-1.526,50.598,39.978,50.012,-30.362
-0.544,0.409,0.710,-7.324,8.789,1.831,37.513,-31.804
-0.563,0.442,0.625,-0.854,1.099,-2.991,28.916,-33.081
-0.562,0.407,0.621,-4.761,-3.723,-2.502,25.657,-34.530
-0.604,0.505,0.669,0.427,-0.366,2.319,26.929,-35.699
-0.594,0.449,0.612,2.625,0.732,1.892,27.724,-36.803
-0.608,0.467,0.644,4.639,-0.671,1.282,27.739,-37.077
-0.612,0.494,0.642,-1.465,-1.526,0.549,28.510,-37.055
-0.539,0.444,0.646,-1.282,-4.822,-0.977,28.150,-36.779
-0.466,0.491,0.755,12.329,-35.217,-17.944,28.527,-34.076
-0.475,0.535,0.526,-0.671,-81.238,-31.372,30.669,-32.885
-0.570,0.620,0.246,-2.258,-109.924,-39.490,34.981,-34.205
-0.573,0.719,-0.101,-13.428,-114.075,-29.358,43.132,-37.040
-0.444,0.719,-0.331,-22.705,-112.488,-24.353,51.126,-38.262
-0.283,0.737,-0.544,-9.521,-112.244,-27.344,54.307,-32.919
-0.103,0.688,-0.743,-27.222,-99.976,-27.771,52.217,-22.796
0.087,0.630,-0.810,-35.950,-80.872,-19.409,47.532,-11.399
0.297,0.614,-0.813,-30.945,-67.322,-23.071,42.518,-0.034
0.428,0.540,-0.897,-22.156,-72.632,-31.189,36.500,9.828
0.467,0.574,-0.803,-21.118,-57.678,-11.353,33.511,17.427
0.537,0.487,-0.746,4.272,1.770,-1.038,30.977,23.686
0.631,0.342,-0.712,-19.104,-8.057,-2.197,27.255,29.095
0.664,0.386,-0.641,5.310,-4.944,-0.732,25.805,33.994
0.635,0.391,-0.614,-4.272,-3.540,1.831,23.651,38.049
0.664,0.396,-0.678,17.273,-0.488,1.831,22.245,40.399
0.608,0.554,-0.640,-2.625,2.747,1.770,25.398,39.684
0.698,0.366,-0.576,5.615,0.854,0.000,25.262,40.653
0.656,0.384,-0.653,1.221,-1.404,0.427,24.922,40.615
0.657,0.387,-0.636,-6.592,-4.883,2.380,25.005,40.921
0.669,0.365,-0.632,1.892,-1.282,0.671,22.298,42.606

0.602,0.438,-0.621,3.418,-3.174,1.526,23.480,40.836
0.605,0.416,-0.640,6.409,6.042,-0.122,24.172,40.213
0.590,0.397,-0.686,1.709,3.418,-2.319,24.367,39.019
0.592,0.427,-0.666,-3.601,-3.723,-1.038,25.354,37.584
0.636,0.480,-0.667,17.578,2.930,-6.409,25.548,37.436
0.555,0.380,-0.711,-29.236,19.287,-2.380,24.954,36.508
0.551,0.382,-0.743,15.442,9.766,-4.211,24.657,35.705
0.554,0.337,-0.729,6.409,2.014,2.441,23.335,35.173
0.484,0.483,-0.813,28.320,11.230,-2.686,23.232,32.328
0.423,0.513,-0.914,37.537,49.072,-5.066,24.408,28.997
0.385,0.590,-0.952,53.528,89.783,1.648,26.380,25.246
0.216,0.745,-0.854,50.049,107.849,17.395,31.242,19.601
0.075,0.729,-0.735,52.246,115.234,29.114,35.395,14.286
-0.144,0.802,-0.511,48.279,106.201,28.442,42.756,7.231
-0.263,0.819,-0.233,31.921,101.624,42.053,52.949,-1.725
-0.367,0.806,-0.029,34.363,96.924,46.448,62.221,-11.310
-0.411,0.625,0.239,31.738,99.243,59.082,66.929,-20.935
-0.522,0.406,0.568,11.414,70.801,47.363,58.066,-29.960
-0.521,0.440,0.596,-6.653,20.874,11.719,44.953,-34.390
-0.581,0.487,0.580,-8.667,3.418,5.554,34.573,-36.135
-0.562,0.518,0.631,3.479,6.348,0.977,29.827,-35.981
-0.596,0.537,0.649,-0.549,2.869,2.869,30.700,-35.616
-0.580,0.500,0.588,-0.793,-1.648,-0.427,31.203,-36.045
-0.608,0.501,0.582,3.174,1.831,0.793,31.231,-36.261
-0.592,0.505,0.616,0.793,-0.244,0.793,30.989,-36.777
-0.566,0.518,0.618,-5.188,-5.920,-1.709,31.072,-36.744
-0.557,0.526,0.650,-1.404,-19.836,-11.353,31.172,-35.914
-0.464,0.594,0.607,-6.226,-60.242,-22.034,32.920,-33.550
-0.524,0.594,0.372,-8.850,-92.041,-30.334,35.910,-33.677
-0.471,0.650,0.064,-25.818,-113.892,-28.503,41.927,-34.729
-0.437,0.789,-0.295,-22.766,-129.333,-37.659,52.186,-34.775
-0.104,0.759,-0.480,-17.517,-123.230,-37.842,60.592,-28.656
-0.028,0.761,-0.733,-18.250,-122.192,-35.706,58.972,-17.545
0.208,0.680,-0.783,-35.095,-105.286,-30.945,52.202,-5.475
0.407,0.585,-0.851,-17.273,-91.980,-27.649,43.968,6.927
0.540,0.657,-0.811,-23.682,-59.875,-17.822,38.508,15.166
0.516,0.521,-0.684,-26.367,-30.945,-10.132,34.556,22.827
0.724,0.392,-0.594,-12.878,-15.137,-8.118,30.463,30.956
0.658,0.418,-0.534,3.357,1.404,4.089,29.045,36.523
0.687,0.484,-0.571,4.089,-0.854,-0.183,27.305,40.802
0.695,0.422,-0.528,-5.371,3.967,9.644,25.800,44.524
0.661,0.494,-0.575,8.057,2.136,0.061,27.524,43.373
0.693,0.301,-0.599,-4.089,1.221,4.822,25.552,43.946
0.666,0.418,-0.549,-2.014,-5.371,3.906,24.877,44.296

0.635,0.486,-0.578,-0.549,-5.676,0.488,25.816,42.857
0.666,0.493,-0.551,8.667,3.174,-1.099,25.881,43.104
0.676,0.435,-0.622,20.691,2.563,-0.610,27.620,41.939
0.660,0.457,-0.615,-8.240,1.282,1.038,27.853,41.148
0.655,0.456,-0.577,0.610,-0.916,-0.916,27.371,41.555
0.683,0.473,-0.582,4.517,7.202,0.854,26.891,41.623
0.604,0.493,-0.684,0.305,17.822,4.456,27.696,40.055
0.471,0.504,-0.790,48.340,41.443,14.038,28.335,36.488
0.372,0.693,-0.922,41.443,85.510,24.109,30.578,30.056
0.236,0.732,-0.852,52.246,114.075,33.020,33.513,22.554
0.037,0.825,-0.710,46.875,121.033,40.161,38.525,14.625
-0.186,0.735,-0.486,43.762,116.699,45.654,44.803,6.218
-0.345,0.668,-0.194,24.841,95.825,41.016,52.674,-3.985
-0.480,0.700,0.005,20.874,84.961,38.086,59.965,-16.739
-0.513,0.653,0.211,15.320,78.430,39.734,59.978,-28.601
-0.613,0.583,0.353,0.610,65.979,36.743,52.665,-36.551
-0.575,0.483,0.503,-16.357,56.946,36.987,44.864,-39.495
-0.562,0.498,0.661,-7.446,39.551,28.259,37.891,-38.838
-0.581,0.425,0.725,-3.052,21.118,17.334,31.584,-37.881
-0.591,0.423,0.668,6.226,2.747,-1.404,27.952,-36.306
-0.591,0.450,0.664,-3.418,-0.061,-2.136,26.653,-35.523
-0.607,0.457,0.620,-5.981,-2.319,-1.038,26.138,-36.517
-0.606,0.430,0.630,0.000,1.404,1.343,26.549,-37.460
-0.595,0.426,0.625,0.793,-0.854,-0.305,26.774,-37.801
-0.632,0.487,0.645,1.038,1.099,0.977,27.162,-38.226
-0.602,0.419,0.632,-2.075,0.488,2.502,26.646,-38.280
-0.608,0.424,0.625,3.052,-2.014,-2.075,26.579,-38.372
-0.554,0.459,0.704,1.099,-10.986,-7.324,26.814,-37.160
-0.495,0.404,0.681,-1.831,-40.039,-18.982,26.135,-35.677
-0.447,0.527,0.569,-15.320,-92.834,-36.987,28.573,-33.712
-0.307,0.519,0.052,-28.564,-135.132,-45.166,35.255,-33.081
-0.257,0.745,-0.317,-18.921,-156.372,-46.082,50.629,-32.064
-0.240,0.897,-0.677,-20.569,-148.071,-45.288,64.081,-24.762
0.013,0.799,-0.813,-16.357,-120.361,-33.447,56.947,-12.957
0.193,0.648,-0.881,-28.503,-99.915,-25.940,48.793,-4.070
0.374,0.752,-0.734,-32.593,-76.599,-30.396,44.745,4.420
0.529,0.615,-0.767,-44.800,-52.734,-12.329,39.761,14.592
0.530,0.494,-0.744,-31.067,-30.579,-3.723,35.456,22.083
0.678,0.447,-0.624,-5.188,-20.508,-3.174,32.943,29.831
0.664,0.467,-0.591,3.113,-0.366,1.953,29.107,35.289
0.660,0.406,-0.589,-6.653,0.305,1.404,26.788,39.014
0.651,0.422,-0.621,19.104,2.258,-0.977,25.861,41.634
0.670,0.419,-0.602,2.686,0.732,2.258,25.628,41.880
0.677,0.447,-0.599,-1.160,-0.610,0.732,25.280,42.058
0.670,0.473,-0.578,0.549,-1.160,-0.122,26.144,41.867
0.687,0.433,-0.578,-2.563,-0.854,1.282,26.279,42.527
0.673,0.439,-0.574,2.808,-1.160,1.160,26.649,42.644
0.708,0.470,-0.561,-0.977,-2.747,1.099,26.951,43.119

0.673,0.454,-0.610,2.502,-7.446,0.305,26.562,43.018
0.672,0.470,-0.606,4.333,7.568,-0.977,26.998,42.421
0.682,0.465,-0.578,36.072,5.310,0.977,27.258,42.338
0.648,0.459,-0.567,-6.653,1.282,1.892,27.390,41.736
0.659,0.443,-0.640,8.118,19.775,2.197,27.191,41.428
0.560,0.476,-0.633,-1.038,15.320,-2.075,27.693,39.982
0.604,0.382,-0.673,-2.014,5.310,-2.441,26.552,38.856
0.477,0.539,-0.798,21.179,18.494,1.526,27.207,34.852
0.374,0.654,-0.925,38.513,64.087,6.348,29.418,28.853
0.388,0.689,-0.875,53.162,100.464,15.137,31.093,24.859
0.209,0.762,-0.710,54.260,112.244,32.654,36.215,18.874
-0.029,0.742,-0.557,44.556,105.652,40.039,41.586,12.673
-0.209,0.776,-0.327,27.832,90.454,37.476,49.968,5.307
-0.376,0.769,-0.181,12.451,75.134,30.334,59.176,-6.547
-0.485,0.825,-0.030,11.108,72.937,32.227,63.507,-18.422
-0.571,0.650,0.052,21.790,79.285,39.856,60.476,-28.195
-0.528,0.591,0.249,22.827,87.830,37.842,55.320,-34.639
-0.472,0.455,0.574,10.315,72.266,38.391,48.598,-37.720
-0.572,0.455,0.726,-8.240,32.837,19.165,38.809,-38.629
-0.579,0.463,0.666,0.305,7.263,6.409,32.456,-36.003
-0.566,0.437,0.621,2.869,1.160,-2.075,28.096,-34.732
-0.595,0.490,0.636,-1.404,1.587,1.587,27.677,-35.614
-0.573,0.453,0.631,-1.221,1.526,1.892,28.129,-36.308
-0.574,0.474,0.629,-0.183,-0.366,0.916,28.485,-36.459
-0.579,0.449,0.622,0.427,-0.854,1.648,28.580,-36.541
-0.576,0.499,0.635,-0.488,-1.953,0.488,28.784,-36.265
-0.604,0.509,0.621,-2.686,-3.113,-0.732,29.409,-36.395
-0.548,0.464,0.663,-0.549,-9.399,-1.648,29.228,-35.903
-0.422,0.597,0.662,-0.854,-58.411,-21.912,31.622,-33.011
-0.476,0.521,0.388,2.869,-93.689,-38.574,33.946,-33.186
-0.503,0.624,0.091,6.714,-105.042,-43.335,39.708,-34.376
-0.567,0.740,-0.090,-8.789,-104.858,-39.795,48.047,-36.140
-0.407,0.833,-0.310,-12.939,-99.243,-34.058,54.269,-35.698
-0.235,0.808,-0.480,-17.944,-94.604,-25.879,57.878,-28.875
-0.116,0.740,-0.590,-23.254,-85.815,-27.771,57.606,-21.021
0.073,0.725,-0.638,-30.273,-81.665,-26.184,55.534,-10.486
0.182,0.774,-0.715,-51.025,-70.984,-25.330,51.485,-1.413
0.404,0.631,-0.787,-39.307,-67.932,-30.151,45.887,7.812
0.502,0.647,-0.732,-11.169,-46.570,-15.320,41.884,16.209
0.603,0.505,-0.654,-14.893,-33.142,-10.986,37.387,23.677
0.581,0.543,-0.620,17.334,5.676,4.456,33.696,29.905
0.669,0.370,-0.652,1.770,-1.831,-0.244,30.171,34.984
0.630,0.412,-0.613,-1.526,0.183,0.244,27.256,38.432
0.652,0.402,-0.640,0.366,-1.221,3.235,25.784,39.611
0.638,0.447,-0.609,1.648,-1.770,1.953,24.325,40.820
0.583,0.514,-0.632,11.169,-4.456,-2.808,26.678,39.265
0.654,0.487,-0.596,9.338,2.930,-0.061,27.596,39.263

0.638,0.497,-0.614,9.338,-8.911,3.052,28.977,38.783
0.676,0.455,-0.610,2.380,2.258,1.099,28.881,39.156
0.623,0.463,-0.702,25.269,4.028,-2.563,27.734,39.379
0.632,0.456,-0.566,3.479,-1.343,-1.770,27.584,39.517
0.642,0.475,-0.666,-1.953,12.817,2.258,27.053,39.299
0.538,0.431,-0.696,-5.981,31.494,2.930,26.976,37.264
0.499,0.451,-0.731,9.705,23.071,1.099,27.220,35.682
0.413,0.569,-0.871,36.682,49.622,11.230,27.962,30.619
0.295,0.666,-0.888,46.509,88.318,20.447,30.238,24.523
0.148,0.678,-0.804,49.072,104.858,23.682,33.581,18.481
-0.107,0.757,-0.632,35.278,109.436,26.794,39.140,10.196
-0.262,0.770,-0.496,31.189,114.868,29.480,45.504,1.055
-0.403,0.827,-0.291,19.287,110.718,35.034,52.704,-9.423
-0.472,0.762,-0.076,25.757,117.554,43.884,58.018,-19.794
-0.399,0.528,0.238,16.846,117.676,45.776,60.131,-27.461
-0.442,0.429,0.679,6.104,78.247,31.128,54.727,-33.365
-0.509,0.531,0.719,-2.930,31.616,12.817,43.192,-33.637
-0.539,0.476,0.665,-0.916,1.221,-1.831,33.431,-31.970
-0.567,0.505,0.585,-4.578,-1.587,0.732,30.066,-32.061
-0.568,0.486,0.606,3.845,0.061,-0.549,30.614,-33.801
-0.561,0.549,0.600,4.395,2.747,1.587,31.244,-35.112
-0.573,0.549,0.622,-2.441,-0.122,0.977,32.220,-35.414
-0.576,0.499,0.600,-0.183,0.549,0.977,32.014,-35.461
-0.560,0.545,0.616,1.343,-1.587,1.831,32.729,-34.986
-0.526,0.562,0.649,-0.122,-8.911,-2.258,32.794,-34.188
-0.521,0.507,0.614,2.991,-25.879,-9.460,32.604,-33.828
-0.455,0.598,0.594,-3.540,-61.890,-19.836,34.494,-31.855
-0.563,0.583,0.287,0.122,-96.802,-27.100,37.091,-33.598
-0.536,0.679,0.061,-1.404,-97.961,-26.062,42.391,-36.227
-0.501,0.692,-0.161,-10.681,-105.591,-31.616,49.264,-37.596
-0.373,0.719,-0.344,-8.484,-110.168,-28.687,53.493,-36.373
-0.155,0.804,-0.502,-12.695,-105.164,-23.315,57.723,-27.191
-0.057,0.771,-0.635,-15.137,-96.313,-29.419,56.609,-17.665
0.091,0.680,-0.812,-28.931,-84.534,-20.081,51.740,-7.478
0.306,0.707,-0.714,-15.625,-81.665,-30.518,47.969,2.663
0.568,0.660,-0.790,-21.545,-74.402,-29.114,42.374,12.544
0.603,0.540,-0.749,-30.334,-37.231,-6.775,36.916,21.351
0.607,0.552,-0.677,-13.672,0.549,5.310,34.362,28.582
0.675,0.463,-0.571,-2.075,0.610,2.258,30.805,34.579
0.637,0.355,-0.629,1.648,-1.221,1.099,27.673,37.849
0.672,0.499,-0.557,3.723,5.249,1.770,27.719,40.191
0.628,0.406,-0.609,7.446,-5.554,0.732,26.050,41.756
0.662,0.447,-0.587,-4.883,-3.479,2.380,25.831,41.572

0.637,0.470,-0.588,-0.183,-4.028,0.610,27.514,41.214
0.660,0.485,-0.606,7.385,2.869,-1.709,27.180,40.792
0.623,0.492,-0.633,-11.719,11.719,2.075,28.183,40.077
0.612,0.431,-0.598,2.502,1.526,-1.770,28.183,39.535
0.605,0.466,-0.609,6.897,8.301,1.099,28.189,39.050
0.569,0.427,-0.651,-5.005,13.916,0.977,27.656,38.005
0.592,0.436,-0.574,14.465,-0.793,0.427,27.358,38.378
0.569,0.459,-0.686,25.879,8.057,-0.977,27.492,37.075
0.529,0.551,-0.734,13.306,17.029,-0.061,28.291,34.883
0.460,0.623,-0.842,19.531,44.495,6.042,30.172,31.488
0.347,0.668,-0.912,41.931,80.994,15.015,31.858,25.920
0.228,0.752,-0.893,51.147,112.732,33.264,34.841,20.160
0.009,0.777,-0.678,51.331,125.854,41.321,38.974,13.472
-0.210,0.729,-0.406,38.330,113.953,41.016,45.118,5.201
-0.382,0.763,-0.202,18.616,98.206,36.316,53.839,-5.449
-0.486,0.720,-0.034,20.020,102.417,43.274,60.391,-18.127
-0.504,0.632,0.241,14.526,101.624,49.194,60.143,-28.858
-0.489,0.551,0.518,0.854,87.402,37.109,54.053,-34.412
-0.451,0.453,0.697,-10.681,54.626,41.992,44.515,-35.038
-0.500,0.376,0.777,-0.305,25.757,19.958,34.209,-32.894
-0.517,0.399,0.699,-4.883,3.357,2.197,28.145,-31.244
-0.534,0.367,0.682,-4.639,1.160,-1.587,24.588,-31.480
-0.540,0.394,0.670,0.061,0.732,-1.770,23.598,-33.017
-0.580,0.484,0.721,-2.014,-0.732,-0.854,25.033,-33.961
-0.584,0.506,0.695,-2.808,-2.563,-0.793,26.193,-34.345
-0.528,0.468,0.710,0.549,-7.324,-2.136,27.362,-33.644
-0.451,0.404,0.756,1.892,-40.161,-16.479,27.392,-31.991
-0.434,0.466,0.546,-15.259,-86.975,-38.269,28.715,-31.382
-0.529,0.683,0.274,4.944,-112.671,-40.161,33.952,-32.493
-0.427,0.621,-0.072,-3.174,-117.065,-46.936,42.431,-34.864
-0.405,0.835,-0.290,2.380,-113.770,-41.687,54.578,-34.168
-0.329,0.802,-0.415,-14.771,-102.112,-37.537,59.050,-29.531
-0.034,0.844,-0.525,-18.494,-91.858,-32.715,60.330,-19.557
0.068,0.848,-0.583,-27.222,-81.970,-27.344,59.727,-10.472
0.212,0.830,-0.651,-46.082,-76.233,-24.902,56.799,-1.209
0.368,0.731,-0.683,-20.630,-77.393,-29.053,52.254,8.583
0.562,0.661,-0.695,-23.682,-51.147,-14.954,46.837,16.716
0.587,0.583,-0.602,-22.461,-32.349,-3.784,41.695,24.221
0.639,0.558,-0.586,-17.639,-20.874,-2.319,37.085,30.885
0.673,0.525,-0.591,-5.066,-1.160,2.319,33.705,35.933
0.698,0.492,-0.547,7.019,-0.854,-0.854,31.768,39.297
0.682,0.444,-0.554,-6.531,-1.892,1.770,29.799,41.480
0.686,0.464,-0.541,2.869,2.869,2.075,28.582,42.881
0.669,0.455,-0.536,-0.916,-3.235,4.761,27.953,43.700
0.677,0.464,-0.545,-3.113,-2.869,2.380,27.717,43.672
0.682,0.475,-0.519,0.793,-3.845,0.244,28.264,43.745

0.633,0.521,-0.534,6.531,-3.906,0.916,29.324,42.856
0.661,0.495,-0.560,2.258,3.479,-0.122,29.763,42.337
0.631,0.638,-0.639,6.470,4.700,-1.282,31.714,40.077
0.653,0.486,-0.561,1.709,1.282,-0.427,31.800,39.410
0.668,0.470,-0.572,15.686,1.282,-3.418,30.798,39.851
0.674,0.601,-0.533,3.052,6.104,4.028,32.123,39.523
0.580,0.483,-0.666,21.362,24.963,1.343,30.414,39.737
0.614,0.646,-0.634,28.687,31.494,2.625,32.177,37.896
0.451,0.540,-0.854,29.236,61.096,16.113,32.591,33.406
0.360,0.694,-0.762,50.110,75.195,16.602,33.718,28.118
0.216,0.735,-0.752,40.588,92.041,24.597,37.382,22.408
0.062,0.809,-0.605,40.710,98.877,26.855,41.257,14.989
-0.148,0.818,-0.458,29.602,91.125,21.240,49.351,7.000
-0.270,0.858,-0.340,20.813,87.830,31.677,56.149,-2.057
-0.387,0.796,-0.161,19.714,88.623,40.710,62.169,-11.551
-0.476,0.763,0.055,17.883,82.397,39.246,64.141,-20.873
-0.527,0.636,0.236,12.817,71.289,35.095,61.266,-28.485
-0.556,0.522,0.379,14.893,64.087,30.640,53.477,-35.156
-0.557,0.523,0.485,5.920,57.922,32.837,45.392,-38.052
-0.505,0.402,0.725,-14.282,39.917,29.541,36.494,-37.756
-0.601,0.438,0.697,-2.502,6.775,5.737,30.625,-36.816
-0.609,0.465,0.651,14.893,1.465,0.122,28.121,-35.840
-0.604,0.484,0.642,0.977,-0.305,0.916,26.611,-35.497
-0.596,0.461,0.648,0.122,-0.427,0.427,27.343,-36.809
-0.586,0.413,0.607,0.000,-0.977,-1.221,27.528,-37.401
-0.592,0.472,0.677,2.686,-6.714,-3.052,27.576,-36.983
-0.501,0.467,0.722,-3.784,-43.640,-23.376,27.417,-35.291
-0.507,0.573,0.514,-7.141,-75.684,-40.649,29.993,-34.583
-0.505,0.715,0.301,-23.987,-101.013,-40.588,36.094,-33.841
-0.471,0.743,0.001,-5.310,-122.437,-45.898,44.847,-34.086
-0.270,0.856,-0.256,-7.446,-125.977,-42.908,57.469,-30.819
-0.136,0.798,-0.588,-16.907,-114.746,-41.992,64.486,-23.644
0.048,0.770,-0.683,-19.775,-105.286,-39.673,61.263,-13.277
0.318,0.802,-0.669,-13.672,-102.051,-42.847,55.755,-0.595
0.496,0.762,-0.657,-23.987,-83.252,-38.025,49.278,10.109
0.548,0.687,-0.628,-25.818,-57.678,-24.353,45.293,19.361
0.648,0.612,-0.610,-11.353,-30.701,-7.324,41.304,27.597
0.644,0.670,-0.638,-33.386,-1.343,10.742,38.393,32.084
0.659,0.549,-0.471,0.305,0.732,-0.366,36.283,35.978
0.660,0.573,-0.503,9.827,1.709,-2.441,35.032,38.568
0.693,0.528,-0.499,10.193,2.991,0.732,34.356,40.253
0.652,0.557,-0.497,4.089,0.793,0.732,33.670,41.995
0.654,0.531,-0.495,-2.869,-2.075,1.221,33.368,41.916
0.664,0.540,-0.485,1.587,0.488,0.793,33.028,42.317
0.656,0.529,-0.494,4.639,-2.747,1.404,33.299,41.939

0.669,0.536,-0.522,3.967,-5.066,0.427,32.803,42.115
0.674,0.556,-0.502,5.676,1.526,1.099,32.952,42.111
0.690,0.570,-0.510,-7.263,5.615,2.869,33.034,42.015
0.641,0.523,-0.513,-2.563,0.305,0.244,32.973,41.779
0.684,0.511,-0.539,21.667,8.850,-2.319,32.504,41.999
0.601,0.557,-0.608,-3.113,17.456,0.549,32.449,40.506
0.617,0.555,-0.639,-6.104,30.090,2.930,32.040,38.966
0.496,0.742,-0.862,20.752,55.603,19.287,33.498,34.040
0.379,0.667,-0.799,44.861,84.778,29.846,35.128,28.548
0.208,0.704,-0.691,44.983,88.074,25.208,37.791,22.995
0.045,0.784,-0.653,31.372,87.036,28.076,42.073,15.127
-0.140,0.873,-0.590,19.348,101.257,36.865,47.480,6.886
-0.255,0.824,-0.341,31.677,106.079,44.006,54.415,-2.068
-0.373,0.756,-0.068,16.907,85.571,40.527,60.892,-11.243
-0.503,0.749,0.088,18.921,82.581,35.889,63.982,-20.888
-0.553,0.625,0.240,28.992,79.346,43.518,60.285,-29.678
-0.519,0.516,0.501,22.888,73.181,41.382,51.678,-35.282
-0.501,0.443,0.681,-8.362,54.932,36.377,42.267,-36.772
-0.536,0.505,0.772,-10.010,14.404,8.179,34.466,-34.857
-0.583,0.509,0.670,-2.563,3.052,0.000,30.234,-33.092
-0.556,0.483,0.722,-0.549,6.165,2.380,28.436,-32.299
-0.562,0.491,0.684,-2.869,3.540,1.648,28.760,-32.792
-0.538,0.458,0.703,-6.042,-1.587,0.732,28.548,-33.452
-0.539,0.455,0.665,-0.610,-0.793,2.014,28.078,-33.201
-0.516,0.424,0.696,-2.136,-3.357,-1.587,27.627,-33.143
-0.467,0.443,0.789,-2.991,-28.992,-15.076,26.821,-31.485
-0.387,0.464,0.623,-2.930,-76.416,-43.274,27.932,-30.051
-0.421,0.589,0.317,-20.142,-111.145,-52.124,32.482,-30.061
-0.486,0.758,0.038,-18.372,-102.234,-53.162,42.097,-31.575
-0.431,0.847,-0.104,-17.395,-101.196,-41.870,53.960,-31.651
-0.231,0.854,-0.321,-15.198,-99.426,-43.213,62.737,-27.234
-0.078,0.837,-0.448,-25.452,-95.154,-33.630,65.767,-19.830
0.107,0.882,-0.646,-26.123,-80.505,-31.250,64.297,-9.599
0.163,0.870,-0.633,-35.889,-65.552,-20.996,59.231,-0.553
0.345,0.722,-0.646,-29.419,-52.856,-21.240,53.665,7.518
0.473,0.702,-0.589,-31.372,-54.810,-26.428,49.210,15.032
0.582,0.614,-0.667,-31.677,-49.805,-23.071,44.311,22.051
0.534,0.567,-0.825,-39.429,-16.113,-12.207,37.924,27.144
0.689,0.476,-0.490,-2.625,-6.226,-2.258,34.483,33.132
0.681,0.508,-0.572,-5.188,-5.188,-1.648,31.273,36.597
0.695,0.471,-0.511,-0.549,-2.258,1.099,29.759,39.645
0.690,0.497,-0.474,6.775,-2.136,1.404,29.626,44.257
0.694,0.500,-0.517,-3.662,2.014,3.906,29.784,43.947
0.690,0.530,-0.523,-1.465,2.197,-3.967,30.214,44.232
0.699,0.452,-0.502,9.155,0.427,0.977,29.997,44.466
0.698,0.501,-0.522,-2.502,-4.822,2.136,29.804,44.161

0.693,0.503,-0.497,2.502,-0.305,-0.061,29.933,44.272
0.686,0.520,-0.500,-0.610,3.357,-0.244,29.932,44.465
0.637,0.540,-0.572,-0.183,3.174,0.732,31.067,42.716
0.682,0.435,-0.553,-4.456,-0.122,2.014,30.193,42.782
0.650,0.480,-0.560,6.287,4.150,-1.404,29.867,42.027
0.639,0.467,-0.632,-3.723,22.156,4.089,28.843,40.904
0.607,0.518,-0.519,17.334,7.446,6.409,28.972,41.100
0.564,0.592,-0.702,15.076,29.541,10.193,30.833,37.811
0.387,0.716,-0.793,21.851,49.500,14.465,33.687,32.105
0.326,0.700,-0.816,37.598,80.688,23.193,36.612,26.409
0.205,0.702,-0.721,35.706,88.379,20.691,38.758,20.021
0.050,0.766,-0.662,34.607,91.858,23.804,42.518,13.107
-0.131,0.832,-0.522,27.344,98.450,28.015,47.399,6.341
-0.254,0.792,-0.299,19.897,90.698,30.334,54.463,-1.970
-0.376,0.823,-0.153,4.272,81.848,32.837,60.959,-11.161
-0.499,0.773,-0.024,-4.395,78.308,39.734,63.467,-20.498
-0.550,0.704,0.151,19.653,75.134,33.142,61.055,-28.371
-0.594,0.633,0.344,21.545,61.279,29.358,55.134,-34.379
-0.580,0.480,0.427,1.587,53.040,27.283,47.217,-39.023
-0.513,0.502,0.529,9.033,49.255,30.884,41.017,-39.254
-0.517,0.350,0.681,0.061,25.879,16.418,33.554,-38.293
-0.578,0.477,0.634,0.488,1.038,2.441,29.849,-37.000
-0.615,0.468,0.643,0.610,1.892,2.625,28.317,-35.933
-0.604,0.469,0.638,-1.282,-3.479,-1.526,26.896,-36.410
-0.609,0.477,0.617,-3.906,-0.183,0.061,28.425,-37.295
-0.578,0.429,0.602,-0.122,-1.465,-2.441,27.979,-37.768
-0.584,0.460,0.646,10.071,-8.606,-5.981,28.007,-37.435
-0.605,0.550,0.650,10.803,-14.221,-11.414,28.984,-36.932
-0.480,0.455,0.643,8.118,-44.189,-24.719,29.185,-35.347
-0.516,0.602,0.429,-3.967,-79.895,-38.818,32.678,-34.817
-0.543,0.627,0.160,-1.404,-88.806,-40.405,38.058,-36.285
-0.482,0.743,-0.046,2.319,-91.431,-39.307,46.002,-36.811
-0.370,0.783,-0.165,-1.953,-89.050,-37.231,54.739,-34.495
-0.244,0.786,-0.369,-17.334,-92.346,-36.926,60.076,-28.896
-0.081,0.874,-0.433,-18.982,-91.248,-32.898,64.024,-19.382
0.007,0.879,-0.572,-21.912,-79.712,-27.832,63.105,-10.626
0.208,0.823,-0.598,-26.794,-74.829,-18.311,59.578,-1.602
0.311,0.758,-0.676,-23.926,-70.007,-24.719,55.160,6.292
0.459,0.662,-0.649,-9.216,-49.438,-21.545,49.348,13.845
0.484,0.704,-0.642,-19.226,-42.053,-16.663,44.960,20.516
0.600,0.552,-0.632,-16.418,-19.348,-11.169,39.976,26.422
0.644,0.460,-0.498,-5.798,-2.625,0.488,36.092,32.798
0.663,0.545,-0.562,6.897,-2.075,0.732,34.083,36.344
0.620,0.534,-0.533,0.061,-1.404,0.732,31.838,39.617
0.641,0.473,-0.507,-1.221,-0.183,1.770,31.240,41.451
0.773,0.466,-0.634,10.742,2.625,-0.122,29.942,41.850
0.644,0.551,-0.544,-0.610,-0.916,-0.061,30.211,41.729
0.637,0.535,-0.544,2.136,1.099,2.014,30.073,41.819
0.644,0.524,-0.535,2.625,-2.380,0.549,30.548,41.334
0.656,0.544,-0.510,1.038,-3.723,0.610,32.754,40.398

