aX,aY,aZ,gX,gY,gZ,Roll,Pitch
0.321,0.923,-0.073,-0.916,-0.916,-2.502,70.371,19.114
0.427,0.883,-0.028,11.292,2.563,-0.427,67.338,22.445
0.431,0.923,-0.021,8.789,-3.418,-2.38,66.541,23.326
0.419,0.879,0,-1.526,-3.174,-1.282,66.06,23.865
0.464,1.052,-0.042,2.197,-5.066,-7.019,65,24.963
0.325,0.845,-0.18,-33.63,13.794,21.606,65.867,23.854
0.357,0.95,-0.085,24.048,13.55,16.235,66.82,22.72
0.511,1.073,0,19.836,-2.563,-6.287,66.736,22.852
0.528,1.085,0.389,-4.395,-36.682,16.113,66.421,23.514
0.466,1.16,0.35,49.5,-84.229,27.344,65.186,23.324
0.269,0.867,0.313,45.532,-96.436,19.714,63.761,22.348
0.217,0.916,0.466,52.429,-101.746,-8.301,62.231,18.981
-0.019,0.62,0.497,46.692,-100.525,-6.775,62.233,13.407
-0.248,0.731,0.366,35.767,-108.826,-5.859,62.125,3.549
-0.47,0.504,0.375,54.443,-64.026,-10.498,57.252,-9.082
-0.518,0.656,0.4,18.86,-51.086,2.075,50.584,-22.713
-0.604,0.625,0.464,31.921,-47.913,8.057,45.859,-31.652
-0.734,0.491,0.359,20.996,-34.424,9.949,38.894,-39.902
-0.79,0.609,0.385,-15.564,-20.386,0.793,37.578,-42.627
-0.826,0.325,0.239,15.137,3.662,-4.333,31.95,-49.644
-0.78,0.496,0.317,5.432,1.465,-1.16,29.564,-53.447
-0.783,0.55,0.375,0.671,3.967,-4.272,29.93,-53.196
-0.766,0.498,0.345,13.611,3.784,-0.916,28.774,-54.344
-0.804,0.521,0.328,10.376,14.526,3.113,31.145,-51.678
-0.753,0.551,0.199,-9.583,34.302,24.536,32.349,-51.622
-0.674,0.386,0.294,-17.395,67.749,32.959,31.311,-52.765
-0.408,0.436,0.4,-54.81,98.999,42.053,33.081,-49.505
-0.228,0.676,0.666,-78.247,115.845,18.433,38.385,-38.715
-0.004,0.888,0.636,-52.124,80.566,6.897,44.946,-22.899
-0.008,0.953,0.793,-64.087,79.651,-20.813,48.875,-9.524
0.079,0.707,0.301,-35.095,64.758,-33.142,53.308,-2.296
0.293,0.865,0.188,-38.818,66.833,-32.532,60.226,5.257
0.407,1.014,0.255,-28.931,62.195,-20.447,64.084,11.293
0.454,0.916,0.203,6.897,7.751,0.183,66.054,18.772
0.411,0.914,0.076,-4.456,-2.319,7.08,65.077,22.496
0.305,0.547,0.003,-2.014,-19.043,2.686,63.836,24.671
0.325,0.771,-0.11,14.16,0.061,-4.944,64.438,25.382
0.371,0.924,0.058,10.071,7.507,2.747,65.884,24.111
0.365,0.894,0.093,13.916,6.531,0.305,66.451,23.536
0.335,1.107,0.084,-9.338,6.958,-9.949,69.236,20.677
0.227,0.845,-0.016,15.32,-1.526,-4.028,70.763,18.958
0.378,0.868,0.051,5.066,5.249,-4.639,70.416,19.321
aX,aY,aZ,gX,gY,gZ,Roll,Pitch
0.309,0.913,0.063,-4.639,5.371,-2.258,71.317,18.481
0.455,1.037,0.121,8.24,-8.057,-4.211,69.257,20.471
0.372,0.919,0.078,-7.507,-3.113,0.977,67.517,21.993
0.388,0.93,0.084,0.916,0.732,4.089,67.636,21.779
0.336,0.937,0.071,10.864,1.221,5.981,67.411,21.992
0.385,1.063,0.249,-4.211,-2.38,-2.197,67.98,20.886
0.248,0.996,0.083,-3.235,-13.062,18.921,69.836,18.932
-0.048,0.738,0.419,72.693,-48.279,-19.775,71.7,13.554
0.24,1.218,0.217,-5.92,-15.93,-1.892,72.421,11.302
0.464,1.11,0.536,23.437,-71.777,22.827,69.158,12.013
0.323,1.06,0.428,44.556,-106.567,26.55,65.563,12.472
0.021,0.909,0.462,82.886,-121.582,12.024,65.615,12.826
-0.071,0.634,0.393,77.393,-93.994,-9.888,62.141,10.097
-0.342,0.596,0.406,66.956,-113.037,15.137,62.133,-1.108
-0.596,0.617,0.394,38.147,-70.618,2.136,55.019,-17.09
-0.617,0.496,0.306,49.683,-47.729,-4.456,46.654,-30.311
-0.771,0.551,0.276,20.874,-42.419,-1.709,39.887,-41.274
-0.784,0.432,0.224,13.123,-17.212,-2.563,34.809,-48.882
-0.849,0.392,0.197,3.54,-2.502,-5.798,30.464,-54.888
-0.809,0.532,0.286,0.61,4.639,-2.747,29.585,-56.256
-0.811,0.543,0.298,-2.014,4.761,-0.549,29.147,-56.553
-0.83,0.462,0.286,0.671,10.681,4.395,29.085,-56.241
-0.802,0.549,0.216,-7.812,32.166,20.325,31.307,-54.13
-0.735,0.401,0.291,-9.644,64.575,57.8,30.182,-54.837
-0.63,0.367,0.44,-59.448,86.731,38.879,28.759,-54.159
-0.247,0.664,0.552,-85.754,109.924,4.517,34.872,-44.182
-0.221,0.496,0.884,-75.806,92.957,13.367,34.176,-32.288
-0.161,0.748,0.635,-49.805,82.153,-6.47,38.991,-20.395
0.107,0.906,0.601,-57.251,84.534,-28.259,45.933,-7.677
0.054,0.856,0.445,-66.895,73.608,-36.438,49.408,-3.21
0.381,0.886,0.297,38.818,69.336,-27.344,59.32,5.529
0.393,1.223,0.283,-9.888,32.898,-1.099,64.141,12.554
0.371,0.925,0.123,-1.587,1.892,4.089,66.885,16.471
0.309,0.789,0.124,31.25,-7.874,2.563,66.375,20.386
0.321,0.782,0.224,15.991,10.986,-5.615,66.919,20.169
0.348,0.94,0.212,5.127,-2.441,4.883,66.248,21.063
0.384,0.906,0.229,6.653,3.479,-3.967,65.274,21.224
0.068,0.446,0.291,-15.198,0.305,0.977,64.393,19.198
0.208,0.94,0.18,-2.747,-1.709,0.977,67.194,16.699
aX,aY,aZ,gX,gY,gZ,Roll,Pitch
0.343,0.86,0.194,-5.859,3.357,-2.319,66.926,17.008
0.522,0.426,0.073,9.827,7.324,7.141,63.057,22.357
0.323,0.952,0.138,-22.644,-6.592,5.432,64.542,23.354
0.294,0.928,0.125,0.977,-4.211,13.672,63.572,24.775
0.251,0.992,0.171,10.864,-7.874,19.531,65.837,22.61
0.177,0.909,0.134,45.593,8.972,4.028,72.535,15.278
0.22,0.72,0.277,-6.531,4.272,-9.888,71.634,14.587
0.311,1.129,0.358,-25.757,-7.324,-2.014,70.294,13.931
0.396,1.036,0.563,26.917,-83.252,13.367,65.484,15.356
0.388,1.086,0.56,62.439,-105.896,-1.038,61.056,16.858
0.282,0.799,0.415,65.247,-101.501,-47.852,59.94,17.128
-0.092,0.813,0.43,-6.714,-113.831,-1.648,59.529,13.011
-0.396,0.703,0.38,31.616,-116.15,8.545,62.177,2.726
-0.462,0.637,0.395,39.368,-96.802,-22.156,59.306,-11.219
-0.584,0.611,0.364,24.536,-45.654,-5.005,51.551,-25.763
-0.713,0.539,0.287,20.264,-31.189,4.639,43.937,-36.907
-0.729,0.56,0.324,9.155,-37.537,21.667,39.57,-42.468
-0.87,0.361,0.059,7.812,-20.142,6.775,33.965,-51.356
-0.846,0.475,0.128,1.77,9.46,-10.071,30.719,-56.458
-0.814,0.468,0.157,-0.732,18.188,-3.296,29.266,-58.717
-0.84,0.583,0.046,-9.338,37.292,26.855,29.09,-60.236
-0.669,0.516,0.348,-55.908,59.57,24.048,32.223,-55.816
-0.449,0.371,0.482,-36.011,93.567,28.809,33.239,-51.612
-0.376,0.555,0.588,-55.847,127.869,12.634,36.32,-43.048
-0.05,0.972,0.76,-85.51,134.705,-6.47,42.123,-25.406
0.127,0.863,0.801,-22.583,79.529,-17.151,45.27,-11.096
0.487,1.42,0.52,-69.519,55.725,-4.15,54.922,2.314
0.157,0.732,0.43,-32.593,63.965,-6.226,56.763,8.704
0.411,1.027,0.461,-8.545,44.861,-7.202,58.176,14.389
0.366,0.956,0.418,-20.874,10.01,3.235,60.739,17.452
0.316,0.943,0.225,-6.897,4.944,6.531,61.577,17.501
0.337,0.946,0.237,2.319,7.874,-7.812,63.142,19.242
0.326,0.911,0.266,14.099,3.967,4.761,64.794,18.916
0.368,0.87,0.282,15.137,1.77,-2.319,65.346,19.495
0.24,1.021,0.323,-4.822,1.892,-4.211,65.772,18.021
0.437,0.849,0.258,3.052,2.258,2.38,64.056,19.739
aX,aY,aZ,gX,gY,gZ,Roll,Pitch
0.348,0.908,0.264,-5.92,4.883,-1.038,63.848,20.04
0.348,0.333,0.226,4.7,-16.724,28.137,60.772,22.639
0.294,0.908,0.177,0.305,-5.554,20.386,60.448,24.441
0.222,0.926,0.252,5.432,3.357,20.569,63.693,20.673
0.144,0.284,0.492,23.132,-18.188,-9.827,58.084,20.415
0.323,0.966,0.171,-21.057,12.329,-27.344,64.534,16.712
0.375,0.948,0.324,-3.601,-7.69,-2.075,62.41,17.555
0.504,1.104,0.554,2.014,-72.266,25.574,58.221,20.268
0.403,1.126,0.444,51.27,-132.446,41.504,62.127,20.017
0.157,0.878,0.37,108.887,-134.155,1.404,61.299,18.125
-0.126,0.583,0.26,67.688,-109.131,-14.221,63.022,13.085
-0.395,0.578,0.383,48.035,-90.881,-7.751,65.263,0.63
-0.593,0.569,0.403,40.1,-69.275,-6.042,56.742,-17.891
-0.711,0.514,0.316,25.879,-48.401,-5.432,44.564,-34.821
-0.755,0.509,0.342,18.86,-25.696,-2.808,37.297,-43.287
-0.672,0.491,0.268,-6.47,-27.222,-4.822,34.441,-47.866
-0.857,0.525,0.231,11.963,-0.916,-2.991,32.423,-51.946
-0.809,0.52,0.305,1.526,5.798,2.38,31.802,-52.841
-0.774,0.523,0.313,-1.648,9.583,4.578,31.917,-53.03
-0.81,0.543,0.317,-3.784,36.316,7.263,31.447,-53.42
-0.787,0.421,0.348,-14.587,51.147,33.02,30.338,-53.163
-0.602,0.466,0.45,-27.466,64.758,45.166,30.629,-50.864
-0.608,0.315,0.556,-43.701,68.054,53.955,28.106,-49.281
-0.166,0.388,0.745,-66.711,87.952,15.869,27.803,-39.416
-0.149,0.609,0.861,-59.814,92.346,24.292,30.45,-25.769
-0.004,0.745,0.872,-40.405,68.176,-3.723,32.964,-14.19
0.21,0.894,0.488,-98.633,69.275,-9.094,41.617,-1.581
0.363,0.994,0.5,-58.533,71.472,-24.414,49.664,5.664
0.417,1.074,0.495,-15.564,15.198,-0.671,55.442,12.64
0.296,0.947,0.287,2.869,-1.038,0.61,60.76,16.674
0.269,0.734,0.26,-18.25,-4.272,12.207,61.364,18.354
0.271,0.822,0.24,-20.996,-3.967,-14.282,63.371,18.244
0.333,0.98,0.25,7.141,9.644,1.953,65.825,17.836
0.311,0.932,0.372,0.061,8.301,5.981,64.798,17.996
0.458,0.778,0.31,10.071,-0.488,3.174,62.789,20.341
0.38,0.969,0.329,-6.653,0.305,-1.709,61.986,20.951
0.416,0.94,0.276,-2.93,6.592,1.16,60.742,22.167
aX,aY,aZ,gX,gY,gZ,Roll,Pitch
0.24,0.788,0.082,-8.362,6.531,-3.357,62.66,22.453
0.317,1.006,0.256,30.334,-5.737,-1.465,65.983,19.501
0.324,0.852,0.214,0.916,-5.188,4.578,66.763,19.423
0.333,0.897,0.26,-9.338,-7.324,3.54,67.591,18.473
0.274,0.904,0.173,-1.587,-5.432,13,67.161,18.33
0.23,0.829,0.258,15.198,1.404,14.893,67.079,17.889
0.222,0.93,0.201,22.949,17.212,2.38,68.748,16.093
0.241,0.872,0.164,21.545,15.503,-17.395,70.5,14.934
0.326,0.904,0.252,4.089,16.052,2.075,69.203,15.623
0.38,0.971,0.406,-2.319,5.615,-3.296,67.103,17.024
0.484,1.048,0.617,-8.728,-38.635,18.555,61.865,19.424
0.438,0.86,0.527,39.246,-104.309,14.099,57.292,21.241
0.278,0.988,0.504,56.152,-135.62,9.338,56.161,19.849
-0.023,0.794,0.578,96.802,-121.765,-15.991,55.685,15.28
-0.366,0.629,0.449,71.35,-106.201,-11.23,57.495,4.832
-0.55,0.459,0.464,55.054,-76.843,-9.521,53.787,-10.718
-0.676,0.449,0.429,32.776,-58.35,-17.639,42.901,-28.147
-0.791,0.392,0.23,40.161,-49.561,-24.78,34.058,-43.761
-0.851,0.399,0.223,12.695,-26.733,-0.732,28.212,-52.924
-0.886,0.381,0.256,7.08,-13.55,4.944,25.502,-58.272
-0.859,0.393,0.283,0.671,4.333,-2.686,23.927,-61.311
-0.874,0.403,0.292,0.244,7.996,0.305,23.497,-61.341
-0.902,0.457,0.258,-3.967,10.254,6.165,23.923,-60.839
-0.819,0.41,0.169,-19.653,33.02,29.602,24.819,-60.653
-0.706,0.393,0.296,-40.405,69.092,40.955,25.719,-59.436
-0.628,0.442,0.552,-54.26,84.167,30.701,27.209,-55.15
-0.457,0.563,0.572,-55.786,94.421,34.973,30.615,-47.304
-0.27,0.526,0.755,-51.208,88.379,27.954,32.72,-35.348
-0.131,0.49,0.913,-37.72,63.599,8.484,32.583,-23.323
0.036,0.688,0.815,-16.113,69.336,-9.644,35.643,-12.194
-0.051,0.725,0.593,-64.026,78.857,-16.846,38.056,-6.058
0.34,0.825,0.661,-40.527,49.561,-8.972,42.393,2.743
0.343,0.766,0.563,11.719,12.695,4.639,47.887,9.495
0.336,0.799,0.448,0.366,-0.061,2.258,51.656,14.116
0.348,0.806,0.476,-2.197,-0.122,2.686,51.455,19.541
0.349,1.134,0.487,-18.372,4.15,0.244,55.536,18.879
0.306,0.887,0.376,-15.93,3.479,-7.08,58.387,18.319
0.283,0.66,0.258,23.743,-4.944,2.563,59.563,18.527
aX,aY,aZ,gX,gY,gZ,Roll,Pitch
0.32,0.912,0.269,-0.61,3.052,4.822,65.385,18.577
0.394,0.999,0.332,6.226,-2.625,9.827,63.965,19.615
0.505,1.077,0.423,20.081,-7.69,28.87,61.947,21.099
0.474,1.061,0.463,25.574,-14.771,61.584,60.902,21.428
0.235,1.038,0.414,49.866,-35.4,67.383,61.242,19.739
-0.016,0.927,0.421,45.837,-69.946,44.25,62.937,15.067
-0.135,0.852,0.35,72.815,-92.407,23.926,65.846,7.544
-0.2,0.808,0.412,87.036,-112.366,8.301,66.175,-1.68
-0.294,0.635,0.46,133.606,-128.845,-4.639,61.287,-10.122
-0.581,0.433,0.508,165.894,-124.878,-26.855,52.263,-20.541
-0.733,0.145,0.38,160.583,-104.187,-44.434,38.695,-34.008
-0.804,0.171,0.382,131.409,-90.82,-54.565,24.993,-47.442
-0.922,0.247,0.341,95.215,-80.811,-52.979,16.145,-58.072
-0.929,0.247,0.421,57.556,-71.289,-43.396,12.294,-63
-0.91,0.076,0.298,60.059,-67.139,-40.405,10.895,-65.548
-0.993,0.126,0.181,55.969,-56.213,-44.189,9.979,-69.243
-1.037,0.286,0.099,35.278,-45.532,-55.542,10.417,-72.237
-0.932,0.413,0.016,18.311,-46.021,-77.759,12.958,-74.429
-0.527,0.495,-0.035,8.423,-32.593,-91.919,20.68,-68.904
-0.651,0.537,-0.092,-4.944,-14.404,-56.152,28.819,-61.18
-0.718,0.645,-0.067,-18.433,-4.578,-21.545,36.413,-53.434
-0.705,0.675,-0.022,-1.404,1.953,-12.085,42.024,-47.756
-0.715,0.765,-0.041,5.31,2.441,-5.432,43.132,-46.674
-0.707,0.724,-0.045,6.165,3.418,1.221,44.57,-45.32
-0.715,0.701,-0.032,5.676,3.784,6.531,45.182,-44.749
-0.725,0.691,-0.016,3.479,3.54,7.629,45.14,-44.799
-0.71,0.666,-0.037,-3.967,4.578,4.333,44.188,-45.752
-0.627,0.599,-0.052,6.409,14.832,20.874,43.679,-46.249
-0.637,0.553,-0.015,-0.488,31.494,58.777,42.872,-47.067
-0.736,0.631,0.044,-28.992,38.635,72.327,42.096,-47.889
-0.706,0.52,-0.009,-30.579,64.575,84.351,40.401,-49.595
-0.906,0.415,0.042,-46.082,80.2,86.121,35.362,-54.62
-0.894,0.186,0.201,-47.791,85.022,67.078,28.298,-61.313
-0.853,0.206,0.356,-68.604,85.144,51.025,21.258,-66.618
-0.861,0.396,0.42,-90.088,73.608,34.363,18.196,-65.834
-0.809,0.347,0.418,-111.328,71.838,26.917,17.095,-62.23
-0.728,0.51,0.481,-84.167,74.158,17.212,21.743,-55.648
-0.62,0.655,0.463,-160.645,79.834,9.033,28.551,-49.142
-0.556,0.703,0.534,-113.037,72.083,-17.212,33.785,-42.941
-0.421,0.959,0.519,-114.563,80.383,-36.865,42.684,-33.892
-0.203,1.002,0.55,-82.336,88.623,-44.922,50.46,-24.721
-0.144,0.857,0.398,-42.236,89.233,-46.143,55.735,-18.097
-0.072,0.826,0.33,-22.949,93.872,-46.448,61.445,-11.676
-0.015,0.917,0.346,-2.563,84.045,-43.335,64.984,-6.265
0.201,1.053,0.427,0.061,73.12,-38.879,67.662,-0.437
0.291,0.918,0.408,11.719,48.157,-25.513,67.164,5.765
0.347,0.949,0.412,15.564,29.663,-14.832,64.946,11.224
0.326,0.951,0.376,0.244,21.606,-3.418,62.7,15.523
0.282,0.798,0.303,0.366,9.583,0.183,61.668,17.668
0.416,0.815,0.329,18.677,18.86,-10.742,60.651,19.907
0.361,0.822,0.434,16.479,1.526,4.211,59.422,20.634
0.293,0.781,0.243,-11.658,-4.211,-2.441,59.651,21.284
0.383,0.89,0.259,-9.521,4.456,0.977,59.769,22.312
0.248,0.763,0.257,-7.629,6.836,2.747,61.693,20.325
0.281,0.877,0.263,-16.724,-1.892,3.357,64.493,19.165
0.287,0.849,0.238,-5.493,-4.822,-1.465,65.053,18.753
0.29,0.868,0.228,-10.254,-2.319,-0.977,66.191,17.532
0.332,0.871,0.213,-14.282,-1.221,0.427,66.356,18.329
0.309,0.908,0.17,-6.409,-3.357,0.061,66.997,18.703
aX,aY,aZ,gX,gY,gZ,Roll,Pitch
0.361,0.802,0.41,11.047,6.47,9.888,64.484,19.761
0.465,0.844,0.452,6.775,2.563,15.747,60.688,21.928
0.471,0.985,0.549,2.808,-3.296,27.832,57.522,22.508
0.417,0.982,0.575,24.719,-5.981,45.044,54.03,22.577
0.344,0.91,0.479,34.546,-13.062,51.453,54.407,21.761
0.159,0.95,0.463,41.748,-40.1,42.358,56.959,17.734
0.039,0.868,0.472,47.729,-73.914,26.184,59.257,12.829
-0.104,0.77,0.474,58.533,-104.675,11.658,61.015,6.286
-0.218,0.68,0.485,88.257,-121.582,-0.977,59.846,-1.884
-0.421,0.527,0.492,134.338,-121.582,-20.203,54.241,-11.597
-0.62,0.295,0.498,141.907,-109.07,-60.73,43.688,-24.476
-0.719,0.171,0.546,131.165,-82.642,-55.542,30.608,-37.01
-0.766,0.186,0.627,90.82,-71.045,-46.997,19.529,-45.706
-0.891,0.054,0.532,96.069,-71.655,-39.795,10.756,-52.315
-0.903,0.075,0.508,65.125,-68.665,-39.978,7.006,-55.337
-0.991,0.111,0.336,38.513,-58.044,-39.49,5.978,-60.019
-1.004,0.122,0.192,32.349,-50.415,-47.546,5.048,-66.988
-0.924,0.176,0.119,24.78,-51.514,-58.899,6.91,-71.86
-0.843,0.348,0.1,20.447,-50.476,-72.083,11.168,-74.221
-0.747,0.46,0.12,0.244,-39.063,-83.923,17.266,-70.783
-0.639,0.46,0.122,11.78,-23.926,-88.44,24.382,-64.322
-0.617,0.581,0.127,-4.028,-12.451,-60.303,32.668,-56.165
-0.706,0.652,0.041,-15.137,-5.432,-16.113,38.153,-51.035
-0.764,0.672,0.034,-1.343,-1.709,1.343,40.741,-48.797
-0.757,0.66,0.017,4.883,-0.549,-2.258,41.946,-47.868
-0.743,0.639,0.018,7.446,0.549,-2.93,41.42,-48.536
-0.732,0.676,0.048,2.075,0.793,-0.732,41.433,-48.518
-0.738,0.655,0.019,0.671,2.869,1.404,41.502,-48.461
-0.682,0.609,-0.035,3.174,10.803,18.555,41.69,-48.301
-0.657,0.642,0.02,-2.441,31.067,56.641,42.579,-47.41
-0.637,0.541,0.006,-7.141,51.025,91.553,42.03,-47.969
-0.733,0.521,0.036,-42.908,68.542,110.779,40.479,-49.518
-0.905,0.264,0.226,-53.04,68.176,102.173,33.74,-55.851
-0.891,0.264,0.322,-65.369,64.026,76.782,26.28,-61.822
-0.857,0.16,0.335,-90.576,68.176,55.176,19.024,-65.838
-0.813,0.159,0.37,-83.313,64.514,36.987,12.953,-66.424
-0.819,0.163,0.407,-132.874,58.838,20.203,11.492,-64.446
-0.885,0.395,0.545,-140.381,53.589,-9.216,13.132,-60.948
-0.756,0.646,0.528,-143.738,56.458,-26.733,19.921,-54.94
-0.605,0.861,0.431,-101.624,53.589,-38.94,29.757,-47.453
-0.446,0.923,0.436,-71.96,64.758,-45.349,40.41,-38.154
-0.275,0.935,0.378,-42.114,78.918,-47.119,50.902,-28.699
-0.277,0.803,0.332,-19.836,83.618,-49.744,57.445,-22.566
-0.212,0.789,0.29,-1.953,80.566,-48.157,61.438,-17.946
-0.027,0.851,0.379,6.47,75.256,-40.955,64.799,-12.235
0.135,0.841,0.409,17.883,65.674,-37.292,66.031,-6.083
0.224,0.867,0.43,20.752,55.786,-41.077,65.688,1.872
0.329,0.917,0.412,3.052,39.368,-35.706,63.174,9.764
0.378,0.866,0.397,-3.54,20.508,-18.188,60.662,15.429
0.44,0.811,0.404,0.977,14.709,-9.705,58.282,19.675
0.42,0.792,0.436,19.592,5.859,-3.784,56.113,22.586
0.403,0.949,0.374,16.968,5.371,-7.507,56.069,23.471
0.375,0.8,0.32,8.057,-1.892,-3.174,56.192,23.967
0.356,0.754,0.363,0.122,0.061,3.174,56.803,23.268
0.358,0.852,0.358,-21.973,-0.793,3.845,58.489,22.293
0.433,0.895,0.437,12.024,-0.916,-3.601,57.274,22.832
0.384,0.87,0.366,-0.793,9.521,-1.709,57.352,22.483
0.373,0.816,0.332,-15.015,-1.221,2.197,57.938,22.46
0.372,0.809,0.368,21.79,-0.488,31.555,57.399,22.85
0.289,0.782,0.235,-65.735,-12.085,10.254,59.566,21.915
0.4,0.96,0.409,-40.71,-3.296,0.366,59.718,21.584
aX,aY,aZ,gX,gY,gZ,Roll,Pitch
0.313,0.857,0.352,3.662,1.038,3.723,60.401,20.518
0.31,0.849,0.324,5.493,2.502,3.479,61.647,19.548
0.361,0.833,0.363,11.963,2.686,3.845,60.221,20.066
0.594,0.983,0.476,1.709,-4.517,25.024,58.168,22.361
0.666,1.009,0.538,18.188,-20.691,66.467,54.994,25.493
0.389,1.066,0.564,26.184,-47.974,70.374,54.317,24.807
0.08,0.955,0.531,21.057,-82.642,49.072,55.796,20.877
-0.172,0.844,0.45,63.171,-109.985,24.536,59.349,12.354
-0.259,0.81,0.407,99.792,-128.723,8.911,62.015,0.523
-0.417,0.688,0.422,136.597,-133.24,1.343,59.182,-11.542
-0.615,0.398,0.387,150.696,-120.422,-2.502,51.014,-24.53
-0.737,0.241,0.41,148.682,-98.694,-16.052,39.421,-37.062
-0.891,0.078,0.484,116.76,-78.003,-29.846,23.986,-50.297
-0.955,0.056,0.429,99.304,-58.472,-41.687,12.041,-59.586
-0.951,0.15,0.443,62.988,-50.293,-46.021,7.567,-62.459
-0.946,0.129,0.313,84.9,-51.025,-50.11,5.746,-65.328
-0.921,0.268,0.303,39.124,-46.265,-50.049,8.439,-66.954
-0.93,0.267,0.217,21.667,-38.818,-55.298,11.608,-68.011
-0.848,0.235,0.058,37.415,-36.194,-62.378,13.47,-70.849
-0.756,0.448,0.126,17.639,-33.386,-63.538,19.059,-67.836
-0.763,0.384,0.08,8.118,-20.081,-57.373,21.829,-66.715
-0.772,0.487,0.09,4.395,-19.775,-59.082,26.192,-63.083
-0.702,0.562,0.089,-5.554,-9.827,-55.603,31.93,-57.323
-0.695,0.577,0.037,1.343,-4.944,-38.513,34.29,-55.286
-0.676,0.573,0.061,-3.479,-1.343,-15.991,37.554,-52.094
-0.73,0.684,0.099,9.277,-0.244,-5.127,40.371,-49.279
-0.701,0.715,0.081,2.808,-0.427,-6.531,42.141,-47.548
-0.714,0.711,0.06,8.423,1.16,-3.296,43.39,-46.267
-0.705,0.721,0.084,10.437,2.747,-2.319,44.621,-45.007
-0.692,0.697,0.089,4.456,4.761,9.033,45.141,-44.507
-0.691,0.68,0.073,7.202,7.629,28.259,44.908,-44.752
-0.657,0.646,0.091,4.333,17.212,55.298,44.778,-44.791
-0.725,0.497,0.128,-9.033,16.296,81.97,42.072,-47.335
-0.785,0.47,0.099,-15.625,33.997,88.013,38.468,-50.869
-0.849,0.341,0.068,-26.123,58.289,91.553,32.713,-56.571
-0.88,0.237,0.22,-40.833,75.195,82.947,25.216,-63.311
-0.835,0.061,0.329,-61.89,76.721,74.646,17.938,-68.481
-0.819,0.106,0.471,-68.42,80.872,65.491,11.837,-68.687
-0.777,0.147,0.506,-89.417,81.604,59.021,8.592,-63.883
-0.679,0.221,0.571,-110.657,79.651,47.241,8.369,-57.879
-0.567,0.363,0.64,-127.686,74.219,31.067,13.124,-50.496
-0.458,0.502,0.738,-120.056,76.111,14.282,19.452,-42.082
-0.369,0.615,0.674,-100.464,67.688,-2.38,26.955,-33.547
-0.355,0.777,0.628,-97.534,65.979,-11.536,35.198,-26.531
-0.231,0.848,0.65,-42.358,66.711,-25.085,42.069,-20.193
-0.173,0.777,0.541,-39.673,67.322,-26.062,47.805,-16.074
-0.047,0.771,0.523,-10.437,66.406,-32.776,52.036,-11.546
0.172,0.915,0.584,-11.23,61.584,-41.626,55.044,-3.954
0.203,0.894,0.565,-15.991,49.011,-36.011,56.553,2.206
0.301,0.885,0.501,-6.531,37.781,-38.635,56.858,8.736
0.404,0.826,0.427,-5.066,26.123,-32.471,56.376,14.803
0.395,0.848,0.436,-12.268,18.066,-24.048,56.011,18.23
0.45,0.865,0.458,6.042,13.977,-15.503,55.055,21.782
0.388,0.751,0.469,-4.944,-2.625,-2.441,53.599,23.608
0.418,0.794,0.353,5.31,28.32,-10.925,53.836,24.148
0.346,0.755,0.314,7.935,0.916,-1.953,54.478,24.327
0.368,0.846,0.398,4.578,-0.244,1.77,55.543,23.477
0.458,0.88,0.35,-20.081,7.69,5.859,56.987,24.021
0.377,0.82,0.352,-15.32,-2.441,0.061,57.565,23.336
0.383,0.819,0.316,-8.789,-3.113,-2.319,57.712,23.485
0.371,0.82,0.287,-10.864,-0.916,-0.366,58.369,23.905
0.383,0.833,0.279,-11.108,-4.028,-1.831,59.311,23.305
0.397,0.849,0.281,-8.911,-0.793,-0.549,59.898,23.559
aX,aY,aZ,gX,gY,gZ,Roll,Pitch
0.32,0.882,0.329,10.742,3.54,4.15,60.886,22.338
0.389,0.868,0.388,7.812,5.066,7.69,60.236,22.142
0.428,0.883,0.402,0.488,4.089,8.85,59.176,22.245
0.658,0.869,0.464,2.441,-7.446,34.119,55.648,25.046
0.552,0.985,0.548,18.921,-25.818,59.143,53.047,26.702
0.363,1.021,0.508,15.625,-46.448,58.777,53.565,25.365
0.064,1.023,0.398,33.569,-75.134,43.152,57.099,20.652
-0.103,0.952,0.363,66.162,-101.563,32.471,63.124,11.323
-0.263,0.8,0.301,87.891,-119.751,31.25,67.513,0.856
-0.437,0.637,0.431,120.239,-120.422,24.475,63.978,-11.219
-0.578,0.361,0.442,164.062,-113.281,4.333,53.079,-23.672
-0.762,0.05,0.434,135.132,-87.036,-29.236,35.428,-39.79
-0.886,0.038,0.447,112.793,-63.354,-47.424,18.81,-52.231
-0.889,0.167,0.493,81.604,-45.959,-52.368,9.708,-58.373
-0.873,0.152,0.485,61.646,-39.978,-47.668,5.995,-60.831
-0.836,0.211,0.466,51.331,-43.091,-43.152,8.162,-60.46
-0.801,0.28,0.427,39.001,-44.861,-40.466,11.798,-59.052
-0.813,0.21,0.302,26.55,-42.297,-44.312,12.904,-60.456
-0.918,0.33,0.304,32.898,-32.227,-43.396,15.629,-61.631
-0.92,0.392,0.287,24.109,-29.541,-48.035,18.165,-62.569
-0.787,0.374,0.212,12.939,-31.25,-50.598,19.893,-63.54
-0.731,0.445,0.195,14.343,-32.043,-44.983,23.765,-61.313
-0.756,0.46,0.142,2.319,-26.245,-36.743,26.846,-59.676
-0.789,0.457,0.125,-2.93,-20.325,-40.588,28.963,-58.708
-0.735,0.518,0.062,-6.897,-13.306,-48.95,31.599,-57.048
-0.707,0.622,0.045,-5.127,-5.615,-22.766,34.357,-55
-0.743,0.634,0.049,6.287,1.343,2.869,36.769,-52.892
-0.755,0.618,0.061,2.197,6.409,6.958,39.068,-50.741
-0.762,0.634,0.06,7.446,10.376,10.315,40.141,-49.682
-0.692,0.601,0.032,-7.996,20.386,25.208,40.048,-49.794
-0.631,0.504,-0.024,-17.944,37.17,56.824,39.664,-50.267
-0.703,0.56,0.007,-20.935,58.655,80.688,39.506,-50.469
-0.789,0.41,0.13,-21.973,66.162,85.388,36.36,-53.538
-0.826,0.311,0.334,-53.711,61.279,76.111,30.901,-58.034
-0.808,0.287,0.397,-61.646,60.852,62.622,25.804,-60.163
-0.847,0.258,0.421,-64.758,62.988,46.265,19.821,-61.15
-0.815,0.303,0.439,-62.073,66.65,29.907,17.572,-59.159
-0.791,0.437,0.452,-80.933,57.434,23.071,19.242,-56.759
-0.746,0.423,0.476,-78.247,51.575,8.118,21.19,-54.488
-0.682,0.5,0.549,-76.782,53.04,-8.85,24.864,-50.099
-0.599,0.665,0.627,-99.243,71.045,-30.029,29.94,-43.97
-0.449,0.63,0.583,-82.703,83.862,-43.457,33.628,-38.175
-0.274,0.802,0.635,-67.505,96.252,-46.57,39.761,-29.563
-0.217,0.788,0.455,-35.217,96.313,-42.786,46.195,-22.642
-0.137,0.78,0.404,2.502,88.989,-38.574,52.051,-16.459
0.035,0.836,0.458,13.855,83.679,-34.912,57.528,-8.985
0.211,0.939,0.498,-2.319,72.876,-30.823,61.454,-1.642
0.303,0.813,0.421,3.113,51.147,-23.865,61.508,6.165
0.42,0.789,0.451,13.916,31.006,-18.433,58.513,14.154
0.466,0.782,0.443,-4.272,24.475,-20.508,55.423,20.293
0.528,0.844,0.477,7.568,19.226,-18.799,52.444,24.942
0.43,0.709,0.445,-12.207,-2.991,1.465,50.352,27.04
0.363,0.621,0.095,-5.615,2.075,-12.39,52.006,28.467
0.418,0.74,0.36,-3.784,-1.099,0,52.712,28.357
0.381,0.812,0.367,-7.446,-2.136,-3.601,54.771,26.831
0.384,0.797,0.339,-18.921,0.244,1.038,56.934,25.872
0.396,0.845,0.326,-11.841,-1.282,-0.488,56.611,24.387
0.376,0.823,0.289,-7.446,-2.869,-0.366,58.256,23.515
aX,aY,aZ,gX,gY,gZ,Roll,Pitch
0.345,0.85,0.389,5.798,6.226,1.221,58.711,22.776
0.344,0.787,0.37,6.653,3.357,1.404,58.75,22.206
0.362,0.779,0.375,15.808,-1.221,-0.366,58.104,21.976
0.607,0.878,0.54,-9.155,-8.545,23.132,54.417,24.176
0.613,1.076,0.606,-5.554,-21.362,37.537,52.51,25.74
0.426,1.012,0.535,22.339,-41.26,61.401,52.485,25.183
0.26,1.073,0.475,43.64,-56.458,75.928,54.519,22.613
-0.053,0.832,0.373,55.786,-92.773,51.697,59.552,15.612
-0.23,0.757,0.419,78.308,-110.657,34.058,63.324,5.629
-0.409,0.642,0.394,94.849,-116.028,14.832,62.55,-6.668
-0.563,0.524,0.431,152.649,-109.131,-9.705,53.371,-21.465
-0.688,0.404,0.547,116.943,-86.731,-20.02,41.762,-32.79
-0.777,0.202,0.515,110.901,-68.237,-27.466,29.873,-43.286
-0.785,0.187,0.525,79.651,-51.819,-41.382,20.817,-49.425
-0.83,0.125,0.484,80.383,-45.166,-41.687,13.883,-53.685
-0.83,0.224,0.539,50.476,-39.795,-40.222,10.905,-55.803
-0.886,0.179,0.483,41.382,-35.828,-40.344,10.375,-57.148
-0.926,0.18,0.418,37.109,-36.926,-43.274,10.105,-59.458
-0.895,0.236,0.361,41.626,-34.912,-49.438,11.657,-60.792
-0.906,0.276,0.232,37.903,-34.302,-56.946,12.568,-64.432
-0.827,0.376,0.371,33.264,-37.354,-58.655,15.65,-63.836
-0.74,0.489,0.276,13.245,-31.372,-68.237,20.986,-61.201
-0.651,0.414,0.215,14.404,-27.161,-72.693,25.154,-58.691
-0.622,0.524,0.218,1.953,-22.644,-60.364,30.673,-53.508
-0.676,0.58,0.171,-15.259,-14.404,-28.259,35.346,-50.821
-0.728,0.669,0.153,-5.432,-8.057,-8.85,38.179,-49.144
-0.73,0.649,0.137,-0.366,-2.441,-5.249,40.476,-47.611
-0.726,0.65,0.139,7.935,0.916,-5.31,41.083,-47.538
-0.723,0.683,0.171,5.981,2.502,-1.465,41.767,-46.928
-0.703,0.692,0.172,3.174,3.235,-0.122,42.202,-46.41
-0.704,0.67,0.138,3.235,6.287,4.639,42.676,-45.93
-0.634,0.563,0.115,-3.418,14.221,27.222,42.683,-45.939
-0.625,0.617,0.09,-3.296,29.785,66.711,43.101,-45.797
-0.644,0.606,0.121,-20.386,53.467,106.262,42.834,-46.217
-0.746,0.448,0.184,-36.865,66.895,119.263,39.625,-49.14
-0.806,0.249,0.336,-54.26,63.293,105.103,33.382,-53.931
-0.801,0.112,0.369,-90.637,51.697,79.59,24.107,-59.882
-0.767,0.134,0.4,-77.209,45.959,51.819,15.618,-62.882
-0.765,0.178,0.477,-75.623,37.72,30.884,10.841,-61.292
-0.854,0.213,0.54,-93.628,36.804,12.634,9.881,-59.237
-0.832,0.379,0.524,-108.276,42.358,-7.507,13.516,-56.354
-0.753,0.516,0.395,-122.986,55.603,-33.386,18.942,-54.047
-0.637,0.648,0.356,-77.82,66.345,-61.768,26.171,-50.615
-0.465,0.913,0.463,-79.651,91.187,-73.486,37.502,-41.767
-0.288,0.995,0.432,-36.255,115.112,-66.956,48.663,-31.589
-0.049,0.936,0.516,0.549,122.131,-55.725,56.882,-20.184
0.17,0.982,0.527,19.897,107.422,-57.617,61.965,-8.38
0.42,1.048,0.541,19.104,78.979,-44.495,62.853,3.255
0.385,0.842,0.433,21.667,47.302,-22.4,59.775,12.132
0.444,0.744,0.45,5.066,33.508,-19.104,56.295,19.057
0.53,0.723,0.438,15.137,21.423,-16.113,52.508,24.868
0.534,0.667,0.419,-0.244,12.451,-12.451,49.177,28.777
0.479,0.796,0.474,11.78,5.981,-2.625,47.677,30.092
0.47,0.814,0.406,2.869,11.963,-1.221,48.46,30.139
0.421,0.709,0.384,-16.357,0,6.836,49.61,29.046
0.388,0.76,0.381,-17.883,-0.549,1.648,51.991,26.72
0.392,0.804,0.361,-26.489,-4.456,0.671,53.728,25.85
0.425,0.819,0.345,-7.446,-0.916,-0.916,54.672,25.383
aX,aY,aZ,gX,gY,gZ,Roll,Pitch
0.453,0.844,0.472,-7.812,2.319,17.7,54.815,24.814
0.474,0.836,0.379,3.54,-2.197,23.437,54.708,25.527
0.422,0.837,0.459,34.119,-13.123,31.372,53.969,25.475
0.437,0.89,0.523,34.668,-26.489,43.335,53.078,24.786
0.294,0.99,0.575,22.888,-40.894,42.664,54.548,21.916
0.102,0.856,0.542,17.09,-57.312,37.964,55.6,16.859
-0.013,0.825,0.532,34.912,-74.585,29.053,56.888,11.13
-0.141,0.797,0.551,46.204,-91.736,16.052,57.457,3.382
-0.288,0.717,0.553,63.416,-104.492,2.686,55.405,-5.024
-0.427,0.635,0.504,101.746,-109.07,-11.047,52.17,-13.351
-0.617,0.453,0.509,118.835,-101.746,-18.677,45.262,-23.712
-0.715,0.208,0.516,112.549,-85.266,-30.457,34.587,-35.261
-0.818,0.163,0.547,98.389,-68.726,-35.828,23.809,-45.44
-0.839,0.208,0.532,88.989,-63.293,-43.945,15.787,-51.896
-0.838,0.18,0.477,60.974,-59.021,-45.41,11.254,-55.487
-0.913,0.183,0.456,66.772,-61.768,-40.222,10.52,-57.843
-0.96,0.236,0.396,45.898,-59.57,-41.626,11.385,-60.251
-0.915,0.281,0.327,18.005,-45.471,-46.387,12.454,-62.652
-0.854,0.312,0.206,23.499,-32.41,-51.208,14.564,-64.781
-0.822,0.329,0.209,23.926,-27.1,-56.702,17.254,-65.433
-0.845,0.463,0.21,31.799,-26.733,-59.021,21.229,-63.935
-0.712,0.49,0.176,17.029,-21.484,-66.345,25.577,-61.108
-0.624,0.443,0.141,18.677,-17.09,-64.453,29.158,-58.015
-0.633,0.593,0.122,6.226,-8.179,-47.852,34.557,-53.373
-0.691,0.667,0.123,-5.371,-3.906,-2.197,38.893,-49.6
-0.739,0.657,0.14,3.113,1.038,11.536,40.749,-48.029
-0.715,0.633,0.157,8.85,4.272,-1.16,42.009,-46.827
-0.712,0.602,0.193,1.526,3.784,0.427,41.204,-47.361
-0.74,0.661,0.207,9.766,5.371,6.775,40.509,-47.674
-0.715,0.595,0.179,6.653,5.371,9.521,39.948,-47.969
-0.72,0.605,0.19,-4.272,5.127,19.653,39.51,-48.206
-0.703,0.547,0.155,-11.78,8.24,29.236,39.052,-48.824
-0.65,0.49,0.068,-20.996,10.986,50.415,38.135,-50.302
-0.732,0.456,0.05,-21.118,19.653,70.129,36.438,-52.537
-0.813,0.42,0.081,-21.851,33.813,73.12,33.252,-56.107
-0.823,0.239,0.163,-23.499,40.955,67.139,27.847,-61.386
-0.805,0.331,0.297,-41.992,42.114,58.289,24.149,-63.766
-0.881,0.184,0.316,-58.533,56.152,47.302,18.902,-66.351
-0.907,0.214,0.371,-51.697,69.702,29.602,15.041,-66.273
-0.877,0.172,0.502,-73.12,87.708,12.268,13.437,-63.387
-0.811,0.321,0.557,-126.221,98.206,-2.502,12.913,-60.58
-0.727,0.32,0.388,-106.812,99.182,-16.357,15.187,-57.842
-0.679,0.484,0.258,-63.232,94.116,-30.273,20.174,-55.286
-0.398,0.973,0.36,-104.919,107.91,-42.725,34.558,-44.972
-0.161,1.088,0.403,-53.223,123.169,-47.424,49.832,-31.604
0.003,1.032,0.428,-16.663,120.789,-47.241,61.964,-17.747
0.248,1.019,0.508,18.982,101.563,-39.185,67.215,-3.974
0.405,0.922,0.463,7.019,83.069,-35.217,65.299,6.337
0.583,0.907,0.52,-3.296,54.565,-16.296,59.532,15.952
0.531,0.78,0.488,-2.502,30.579,-4.639,53.839,23.134
0.564,0.741,0.518,9.216,21.423,-5.798,49.321,28.125
0.417,0.713,0.488,-11.047,-3.052,-0.671,47.224,29.317
0.312,0.6,0.366,-29.663,-3.784,-8.057,47.402,28.286
0.397,0.812,0.403,6.836,-0.61,3.235,49.459,26.628
0.315,0.802,0.405,-26.672,-1.099,-1.953,53.071,23.179
0.363,0.781,0.354,5.493,0.671,-0.366,55.438,22.41
0.428,0.797,0.385,-5.371,3.418,1.526,55.96,22.96
0.431,0.808,0.344,-12.268,-0.366,0.732,56.143,23.604
0.387,0.801,0.322,-16.235,-1.038,1.038,56.168,24.804
0.38,0.823,0.305,-14.709,-3.54,-1.221,56.732,24.924
0.398,0.827,0.288,-6.836,-3.235,-0.977,58.028,24.569
aX,aY,aZ,gX,gY,gZ,Roll,Pitch
0.359,0.813,0.401,0.122,0.488,3.113,58.309,23.43
0.381,0.792,0.419,5.493,2.686,1.648,57.473,23.173
0.375,0.794,0.414,1.404,2.319,1.404,56.345,22.992
0.547,0.812,0.494,8.972,-4.089,19.714,53.232,24.51
0.609,0.874,0.527,14.343,-15.503,40.955,50.833,26.96
0.479,0.938,0.558,28.076,-22.4,64.697,50.362,26.932
0.332,0.892,0.499,15.076,-41.565,69.641,50.859,25.719
0.056,0.913,0.463,21.545,-74.402,49.194,55.088,19.565
-0.134,0.807,0.428,55.237,-97.534,29.297,59.622,10.265
-0.246,0.756,0.461,83.191,-112.976,10.864,61.216,0.129
-0.39,0.689,0.495,106.323,-116.028,-6.042,57.971,-11.026
-0.582,0.537,0.444,134.705,-105.042,-9.033,50.828,-22.069
-0.685,0.451,0.501,118.652,-91.125,-13.367,42.145,-31.647
-0.745,0.18,0.525,117.737,-70.801,-24.536,30.913,-41.618
-0.852,0.144,0.611,91.553,-55.176,-35.217,20.356,-49.332
-0.899,0.132,0.569,79.956,-44.922,-42.542,13.194,-53.135
-0.918,0.068,0.503,67.627,-50.11,-44.861,7.34,-56.386
-0.929,0.003,0.397,50.964,-52.124,-57.678,4.758,-59.624
-0.881,0.089,0.296,53.955,-46.631,-75.195,4.123,-63.753
-0.724,0.319,0.276,38.574,-37.231,-88.013,7.269,-65.855
-0.795,0.362,0.163,31.067,-35.4,-90.088,12.397,-67.63
-0.754,0.496,0.215,32.593,-38.696,-81.421,21.027,-63.354
-0.65,0.433,0.142,-27.344,-34.18,-72.876,27.998,-58.427
-0.634,0.649,0.138,-11.23,-16.785,-35.522,33.703,-54.133
-0.73,0.607,0.066,1.038,-4.272,-15.198,37.73,-50.817
-0.713,0.715,0.144,9.033,-1.404,-6.226,40.952,-48.015
-0.714,0.702,0.12,5.371,0.549,-6.287,43.373,-45.795
-0.693,0.71,0.108,5.188,2.808,-5.615,43.484,-45.817
-0.689,0.671,0.119,7.263,3.479,1.221,44.463,-44.672
-0.7,0.659,0.132,5.676,2.258,4.333,44.028,-45.129
-0.708,0.651,0.139,5.127,2.502,4.15,43.509,-45.56
-0.687,0.669,0.146,2.319,4.272,6.104,43.062,-45.847
-0.678,0.643,0.125,1.404,7.812,13.916,42.857,-46.011
-0.602,0.538,0.07,4.639,18.188,46.997,42.623,-46.408
-0.649,0.629,0.149,0.061,40.1,83.984,42.976,-45.987
-0.612,0.442,0.184,-38.574,56.091,98.572,40.955,-47.683
-0.747,0.293,0.127,-39.001,58.96,94.971,35.539,-52.886
-0.862,0.322,0.286,-68.115,59.326,76.233,29.629,-57.274
-0.831,0.264,0.411,-73.181,57.8,58.838,22.342,-61.425
-0.847,0.144,0.504,-93.75,46.509,34.485,16.089,-62.973
-0.774,0.38,0.625,-92.773,50.903,9.583,16.349,-57.175
-0.687,0.43,0.606,-111.023,62.744,-2.075,17.75,-51.825
-0.647,0.624,0.519,-126.221,79.895,-18.494,23,-47.033
-0.501,0.647,0.47,-109.07,101.99,-37.476,31.282,-40.601
-0.397,0.74,0.465,-96.008,115.479,-48.401,38.786,-34.94
-0.275,0.871,0.49,-78.369,116.882,-52.185,47.271,-27.621
-0.09,0.855,0.46,-10.254,109.253,-48.218,53.929,-19.127
-0.082,0.989,0.41,7.874,99.487,-48.828,59.816,-12.179
0.276,0.965,0.482,39.429,79.773,-33.264,63.327,-2.376
0.431,1.016,0.501,2.258,63.293,-17.151,63.247,7.168
0.515,0.912,0.551,-12.024,48.462,-0.854,59.869,14.709
0.451,0.705,0.453,16.724,41.321,-6.287,54.171,22.145
0.492,0.743,0.443,9.094,30.334,-6.653,51.203,25.859
0.484,0.801,0.547,11.353,7.935,-1.77,48.625,27.468
0.485,1.031,0.818,-53.406,39.673,-9.521,47.92,25.64
0.387,0.759,0.346,-4.7,-2.136,0.427,49.593,24.967
0.38,0.828,0.383,-13.367,-2.197,0.183,51.495,23.413
0.354,0.781,0.313,-14.465,-2.686,-0.793,54.136,22.51
0.351,0.842,0.278,-13.855,-4.15,-1.404,58.364,22.983
0.376,0.865,0.303,-15.686,-2.136,2.136,59.661,22.35
aX,aY,aZ,gX,gY,gZ,Roll,Pitch
0.328,0.908,0.318,1.221,2.808,3.052,61.307,21.346
0.337,0.882,0.329,9.766,5.615,0.549,62.044,20.588
0.314,0.852,0.348,14.648,4.272,-0.122,61.854,19.923
0.519,0.998,0.474,0.427,-9.766,17.456,60.045,20.893
0.564,1.161,0.546,5.249,-28.137,49.622,58.069,22.217
0.39,1.086,0.431,19.165,-45.593,70.557,58.242,21.778
0.222,0.964,0.353,20.386,-60.974,70.496,59.537,20.319
-0.008,0.934,0.365,54.077,-87.83,54.993,63.59,14.62
-0.176,0.95,0.377,79.59,-107.056,40.405,68.06,5.79
-0.376,0.74,0.346,95.215,-114.014,25.269,67.583,-4.999
-0.578,0.59,0.348,135.254,-102.722,0.977,60.314,-17.915
-0.707,0.343,0.38,135.986,-82.031,-16.174,48.251,-31.503
-0.771,0.257,0.475,121.948,-66.589,-23.926,33.793,-44.498
-0.826,0.12,0.535,91.553,-57.312,-36.743,21.265,-52.935
-0.874,0.168,0.567,77.637,-55.725,-46.814,13.374,-55.932
-0.892,0.107,0.472,76.05,-52.063,-55.725,9.398,-57.397
-0.891,0.224,0.435,51.514,-42.969,-60.242,8.743,-58.879
-0.842,0.263,0.361,41.077,-43.213,-58.899,10.912,-60.407
-0.818,0.297,0.307,33.875,-41.931,-55.969,13.239,-62.274
-0.794,0.304,0.211,24.048,-38.269,-54.688,16.836,-62.988
-0.753,0.42,0.2,11.414,-21.545,-62.805,20.78,-62.402
-0.777,0.549,0.246,28.381,-20.996,-61.523,25.532,-59.624
-0.708,0.579,0.22,15.869,-24.048,-62.744,30.408,-55.948
-0.609,0.578,0.176,9.094,-22.034,-53.345,35.616,-51.225
-0.618,0.607,0.126,-12.756,-14.832,-25.269,39.379,-48.054
-0.675,0.676,0.132,-14.709,-5.92,-1.77,42.207,-45.934
-0.708,0.661,0.128,4.517,-0.488,-0.305,43.372,-45.286
-0.707,0.658,0.18,7.263,3.113,-2.075,43.242,-45.485
-0.688,0.685,0.199,7.812,2.258,1.831,43.23,-45.239
-0.689,0.698,0.18,4.883,3.54,2.136,43.208,-45.051
-0.709,0.653,0.17,1.77,3.662,7.507,43.012,-45.03
-0.697,0.624,0.181,5.066,6.165,8.545,42.74,-45.264
-0.67,0.619,0.179,8.789,7.996,19.104,42.248,-45.804
-0.609,0.613,0.141,-1.465,19.836,42.053,42.187,-45.962
-0.668,0.55,0.087,-10.01,48.462,61.584,41.612,-46.875
-0.675,0.541,0.215,10.559,65.674,68.848,40.756,-47.482
-0.706,0.426,0.317,-33.813,62.744,70.007,37.606,-49.619
-0.625,0.298,0.271,-43.579,58.105,70.74,32.772,-52.921
-0.689,0.345,0.397,-70.068,56.763,69.519,28.611,-53.325
-0.684,0.244,0.512,-57.068,61.584,59.448,23.007,-53.637
-0.66,0.28,0.612,-78.735,69.946,52.246,20,-51.185
-0.646,0.274,0.616,-96.741,81.238,28.931,18.446,-47.862
-0.582,0.46,0.575,-127.38,93.994,6.226,19.979,-44.296
-0.527,0.532,0.434,-80.383,96.252,-19.47,25.169,-41.594
-0.403,0.736,0.349,-84.167,96.313,-30.823,34.394,-37.494
-0.233,0.99,0.456,-53.284,88.562,-37.903,47.205,-28.091
0.009,1.114,0.48,-20.63,84.9,-41.016,58.446,-16.957
0.094,1.013,0.443,4.456,79.956,-33.02,64.854,-7.19
0.151,0.904,0.46,19.531,77.393,-28.564,65.417,0.278
0.29,0.934,0.461,7.874,70.801,-26.733,64.12,7.093
0.402,0.878,0.504,27.344,58.533,-10.315,60.718,12.673
0.375,0.76,0.504,26.001,42.847,-5.554,56.703,17.046
0.433,0.646,0.408,20.752,35.095,-14.404,53.236,21.948
0.518,0.675,0.512,17.456,31.555,-25.513,48.803,26.089
0.416,0.55,0.478,1.892,-5.005,8.606,45.565,28.232
0.479,0.725,0.42,16.846,2.136,-5.92,45.057,30.232
0.385,0.647,0.462,-14.099,-1.404,1.831,45.028,29.324
0.45,0.75,0.443,-12.024,-3.723,-0.916,46.922,28.232
0.396,0.741,0.409,-7.263,-1.404,2.136,49.616,27.068
0.408,0.774,0.399,-11.841,-0.793,0.061,50.855,25.878
0.422,0.767,0.391,-13.916,-2.014,-1.099,52.271,25.916
0.418,0.755,0.348,-19.348,-3.174,1.343,53.385,25.742
0.42,0.831,0.354,-16.968,-2.563,0,54.417,25.695
aX,aY,aZ,gX,gY,gZ,Roll,Pitch
0.318,0.844,0.364,4.456,0.977,3.174,56.111,24.173
0.406,0.867,0.386,4.15,-0.244,5.859,57.095,23.44
0.691,0.935,0.519,-14.832,-7.263,32.166,54.83,25.554
0.621,1.053,0.612,35.095,-33.813,53.589,53.16,26.126
0.409,0.981,0.526,15.869,-56.946,65.491,52.447,26.079
0.144,1.066,0.424,54.626,-72.51,58.472,55.303,22.331
-0.096,0.977,0.444,68.604,-81.238,26.184,60.817,13.345
-0.244,0.766,0.399,79.895,-95.52,6.287,64.527,2.907
-0.336,0.597,0.415,121.216,-110.352,-7.324,62.618,-7.974
-0.483,0.509,0.533,115.295,-107.666,-13.367,53.171,-19
-0.614,0.163,0.586,119.141,-93.75,-25.818,38.482,-30.857
-0.714,0.025,0.613,87.708,-72.449,-51.453,23.065,-40.572
-0.812,0.067,0.516,102.6,-68.298,-61.34,12.451,-47.846
-0.919,0.148,0.486,75.562,-56.824,-62.256,6.088,-53.813
-0.97,0.108,0.436,68.298,-54.138,-59.509,4.99,-58.654
-0.896,0.25,0.43,42.236,-50.781,-59.387,8.047,-61.496
-0.899,0.241,0.366,32.898,-47.241,-62.683,10.418,-63.047
-0.831,0.35,0.345,17.273,-34.912,-69.519,13.598,-62.893
-0.798,0.417,0.247,31.738,-26.917,-73.669,18.813,-61.316
-0.758,0.437,0.166,28.503,-27.527,-80.872,22.603,-60.871
-0.663,0.542,0.196,11.658,-23.621,-75.989,28.65,-56.886
-0.609,0.557,0.192,10.071,-11.536,-58.899,33.589,-53.273
-0.668,0.684,0.205,-8.789,-7.874,-17.029,38.368,-49.002
-0.681,0.708,0.203,7.08,-2.869,0.366,42.269,-45.075
-0.685,0.703,0.174,4.639,-2.869,3.174,43.914,-43.736
-0.699,0.663,0.172,8.484,-0.916,4.211,44.203,-43.714
-0.695,0.692,0.197,7.202,-0.366,1.648,44.039,-43.943
-0.685,0.668,0.174,9.216,1.709,2.441,43.651,-44.455
-0.697,0.687,0.207,0.549,3.967,2.319,43.281,-44.651
-0.679,0.643,0.189,0.366,5.371,5.981,43.225,-44.582
-0.644,0.619,0.188,-2.136,7.935,29.053,42.955,-44.806
-0.625,0.61,0.179,-9.888,13.611,57.495,42.909,-44.724
-0.666,0.485,0.142,-31.616,13.306,79.834,41.052,-46.762
-0.68,0.545,0.208,-72.449,21.79,96.68,39.796,-47.809
-0.836,0.312,0.174,-38.574,53.833,87.341,34.011,-53.512
-0.913,0.189,0.107,-46.082,75.256,67.871,25.862,-61.84
-0.927,0.239,0.349,-40.649,79.468,49.133,20.393,-65.412
-0.906,0.306,0.492,-71.533,70.435,40.039,15.58,-66.798
-0.848,0.232,0.504,-65.674,65.613,32.349,13.999,-64.104
-0.768,0.218,0.511,-63.293,77.148,21.057,14.263,-58.578
-0.704,0.378,0.57,-55.847,67.627,12.878,16.47,-53.73
-0.599,0.565,0.627,-59.631,61.401,2.014,20.827,-48.15
-0.456,0.747,0.751,-73.364,71.289,1.526,28.428,-39.064
-0.424,0.724,0.78,-77.637,70.313,2.38,34.647,-30.933
-0.337,0.654,0.699,-64.758,68.604,3.967,38.473,-24.837
-0.345,0.608,0.491,-44.617,65.674,-2.808,41.058,-22.049
-0.237,0.666,0.417,-17.578,73.181,-18.311,44.065,-20.635
-0.146,0.814,0.43,-26.733,83.435,-36.743,50.012,-17.325
0.062,0.916,0.501,-2.197,90.454,-42.542,56.917,-10.702
0.297,0.95,0.547,5.066,82.825,-41.687,60.465,-0.355
0.5,0.826,0.503,10.193,63.538,-30.151,59,10.049
0.534,0.71,0.494,7.812,33.264,-14.16,53.956,19.344
0.507,0.685,0.481,1.343,23.071,-8.911,49.217,26.037
0.521,0.724,0.548,15.686,7.751,-7.568,45.53,29.969
0.369,0.707,0.423,5.676,-5.615,-4.456,45.874,29.358
0.417,0.707,0.372,9.644,0.183,-4.272,47.664,28.34
0.385,0.796,0.393,-20.508,0.854,4.211,50.436,26.382
0.4,0.813,0.346,-23.987,-0.549,1.16,54.001,24.86
0.39,0.8,0.344,-14.221,-0.488,2.991,55.3,24.842
0.401,0.833,0.332,-5.188,1.526,-2.441,56.838,24.017
0.435,0.793,0.337,-2.502,1.16,-2.075,56.811,24.838
aX,aY,aZ,gX,gY,gZ,Roll,Pitch
0.376,0.788,0.395,7.751,3.296,1.282,56.438,24.536
0.446,0.766,0.45,7.446,4.517,2.93,54.782,25.205
0.412,0.749,0.423,15.747,2.625,15.015,53.204,25.575
0.539,0.832,0.461,-10.132,-4.15,10.803,51.679,26.352
0.587,0.937,0.542,0.488,-14.587,28.931,50.247,27.682
0.536,1.047,0.575,17.09,-29.785,56.274,51.041,26.898
0.405,1.036,0.542,22.827,-41.687,55.115,52.443,25.178
0.143,0.922,0.452,41.016,-72.51,42.053,55.663,20.483
-0.021,0.868,0.458,62.988,-94.91,29.968,59.408,13.663
-0.179,0.798,0.387,83.008,-112.61,13.672,62.669,4.889
-0.328,0.771,0.45,114.624,-114.563,3.052,61.944,-5.819
-0.525,0.595,0.537,134.46,-100.586,-4.456,55.115,-16.56
-0.677,0.321,0.568,146.606,-80.688,-13.306,43.849,-28.461
-0.714,-0.006,0.585,135.864,-65.369,-26.978,28.478,-39.509
-0.796,-0.103,0.512,90.088,-57.983,-42.114,13.03,-49.146
-0.957,-0.2,0.371,95.642,-52.734,-53.162,0.2,-57.076
-0.985,-0.1,0.388,48.096,-44.495,-60.242,-5.951,-61.157
-0.912,-0.028,0.388,36.865,-41.87,-59.937,-6.135,-64.842
-0.904,0.146,0.347,24.475,-38.025,-59.082,-2.576,-68.165
-0.887,0.173,0.256,26.672,-40.588,-56.213,2.781,-69.311
-0.924,0.264,0.309,29.846,-42.236,-49.011,8.205,-68.704
-0.958,0.275,0.248,26.306,-39.612,-51.147,12.563,-68.546
-0.916,0.246,0.116,39.795,-37.415,-68.237,14.155,-70.091
-0.772,0.485,0.098,32.593,-22.034,-85.266,19.182,-67.4
-0.708,0.526,0.08,44.495,-10.01,-71.533,24.279,-64.141
-0.719,0.489,0.074,24.719,-4.028,-30.64,29.116,-60.181
-0.817,0.638,0.095,-3.601,-1.526,5.31,35.161,-54.31
-0.817,0.539,0.084,1.831,5.432,0.671,35.45,-54.08
-0.781,0.511,0.105,3.784,7.568,4.028,34.61,-54.857
-0.785,0.479,0.085,1.526,15.381,31.616,33.927,-55.515
-0.706,0.454,0.072,-5.859,25.574,51.147,32.543,-56.902
-0.636,0.381,0.056,-23.987,32.837,73.12,31.974,-57.485
-0.672,0.393,0.172,-50.293,38.086,99.67,31.156,-57.97
-0.759,0.258,0.259,-46.387,48.706,99.854,27.723,-60.201
-0.947,0.062,0.326,-46.753,46.204,80.2,19.322,-65.66
-0.986,0.024,0.453,-60.425,49.072,59.448,11.649,-67.153
-0.924,0.009,0.393,-80.75,53.711,41.26,5.182,-67.821
-0.873,0.153,0.452,-81.604,68.665,29.968,3.487,-66.226
-0.702,0.292,0.568,-121.033,82.642,17.334,6.887,-61.076
-0.611,0.37,0.729,-118.286,91.736,10.681,12.307,-53.578
-0.485,0.426,0.797,-128.967,90.698,-1.465,18.597,-43.322
-0.363,0.853,0.681,-131.409,79.041,-21.484,28.908,-32.538
-0.241,0.821,0.635,-59.998,96.619,-35.034,36.735,-24.289
-0.1,0.943,0.647,-1.648,103.577,-17.883,45.379,-16.132
0.052,0.839,0.595,9.216,96.13,-20.203,52.642,-8.609
0.333,0.823,0.598,19.47,84.595,-26.123,54.16,0.601
0.443,0.791,0.643,8.423,60.059,-18.066,52.698,9.819
0.502,0.679,0.565,6.348,42.114,-14.099,48.774,18.619
0.513,0.705,0.593,0.671,25.024,-8.423,45.045,24.998
0.459,0.666,0.588,-5.188,-1.038,0.671,42.844,27.313
0.45,0.905,0.519,-16.785,10.01,-5.432,44.834,27.333
0.408,0.749,0.483,-25.146,3.113,4.761,46.714,26.136
0.403,0.766,0.468,-22.034,-6.226,1.587,49.004,24.881
0.366,0.786,0.41,-19.592,-4.089,0.671,52.21,23.642
0.354,0.818,0.395,-8.301,-3.113,-3.601,53.249,23.154
0.384,0.803,0.391,2.197,-1.404,-0.854,54.726,22.813
aX,aY,aZ,gX,gY,gZ,Roll,Pitch
0.477,0.807,0.471,2.502,1.099,10.742,54.448,23.589
0.43,0.765,0.433,12.207,-5.554,14.648,53.555,24.483
0.537,0.909,0.568,8.85,-19.897,31.006,51.517,25.845
0.477,0.865,0.539,20.569,-47.119,52.856,50.258,26.211
0.188,0.86,0.536,31.25,-70.984,46.997,52.143,22.296
-0.011,0.873,0.497,59.204,-93.445,24.292,55.056,16.183
-0.174,0.789,0.502,91.919,-108.215,-1.404,57.844,6.902
-0.336,0.674,0.5,142.273,-117.554,-24.841,57.172,-5.023
-0.532,0.316,0.516,163.513,-116.028,-47.974,49.384,-17.549
-0.703,0.132,0.545,132.69,-95.154,-72.815,35.255,-31.829
-0.838,0.169,0.582,93.384,-69.519,-66.04,21.808,-43.91
-0.933,0.198,0.607,89.05,-71.472,-43.396,12.231,-51.466
-0.88,0.105,0.491,57.739,-66.711,-41.443,8.524,-55.491
-0.842,0.105,0.28,42.847,-51.27,-59.204,8.193,-59.678
-0.862,0.237,0.264,39.246,-41.626,-65.186,9.436,-63.366
-0.839,0.288,0.245,20.142,-30.457,-62.012,11.37,-66.683
-0.819,0.324,0.21,19.409,-25.085,-60.669,15.218,-67.668
-0.803,0.373,0.172,25.757,-15.015,-59.875,19.557,-65.528
-0.772,0.467,0.165,27.466,-5.859,-54.688,23.574,-62.902
-0.79,0.559,0.133,20.752,-2.197,-21.851,27.898,-59.803
-0.811,0.602,0.249,3.845,0.916,-2.38,31.577,-56.192
-0.786,0.534,0.197,-1.831,2.747,-4.211,33.683,-54.093
-0.763,0.511,0.232,-12.451,7.263,6.104,34.146,-53.273
-0.761,0.474,0.216,1.099,7.629,14.343,33.156,-53.591
-0.723,0.416,0.165,-13.428,13.428,58.96,31.641,-55.338
-0.649,0.367,0.116,-44.739,27.588,97.29,30.607,-56.576
-0.777,0.284,0.264,-29.297,51.392,107.849,27.118,-59.435
-0.842,0.141,0.269,-47.485,55.298,93.506,21.281,-64.042
-0.822,-0.045,0.292,-67.2,50.354,78.43,13.03,-68.75
-0.824,0.04,0.438,-68.054,53.467,54.016,6.857,-67.818
-0.756,0.096,0.492,-102.417,54.443,33.447,3.728,-65.052
-0.781,0.182,0.545,-85.51,54.321,10.925,4.3,-60.657
-0.705,0.515,0.729,-120.239,69.946,-2.136,12.447,-52.438
-0.541,0.663,0.755,-112.549,83.496,-8.728,21.19,-43.696
-0.385,0.852,0.685,-119.934,103.088,-18.982,31.346,-34.556
-0.165,0.844,0.738,-29.297,98.938,-28.748,40.064,-23.713
-0.058,0.856,0.616,-10.742,100.83,-24.353,46.781,-15.089
0.111,0.826,0.586,3.662,94.543,-27.71,51.654,-6.627
0.341,0.749,0.523,-11.902,77.209,-25.757,52.93,3.201
0.55,0.746,0.521,-3.296,54.26,-19.409,52.515,13.631
0.501,0.701,0.511,11.841,34.851,-9.094,49.121,22.072
0.473,0.612,0.58,10.132,0.305,0.305,44.728,27.855
0.445,0.693,0.391,11.475,7.446,-4.639,44.411,30.042
0.443,0.589,0.356,-4.456,2.991,-1.282,44.754,30.348
0.442,0.735,0.465,-19.348,-4.272,-0.793,45.953,29.537
0.444,0.732,0.467,-16.235,-2.258,4.028,48.361,28.852
0.405,0.771,0.415,-21.851,-0.549,2.502,49.303,27.718
0.381,0.802,0.438,-10.193,6.592,3.357,51.177,25.379
0.414,0.753,0.365,4.639,3.174,2.502,52.404,25.225
0.395,0.758,0.356,-7.385,0.122,0.061,54,24.74
aX,aY,aZ,gX,gY,gZ,Roll,Pitch
0.329,0.808,0.377,-2.014,1.16,3.418,55.312,23.606
0.361,0.83,0.382,8.545,3.357,1.282,56.214,23.326
0.448,0.77,0.465,11.353,1.953,2.014,55.181,23.448
0.752,1.036,0.556,-49.744,-18.372,39.673,52.984,26.004
0.478,1.001,0.48,-6.409,-42.908,76.294,52.644,26.48
0.251,0.984,0.317,47.974,-58.838,78.735,55.033,24.66
-0.027,0.969,0.385,62.622,-81.36,54.626,60.408,18.481
-0.235,0.896,0.397,104.309,-104.431,24.414,66.839,6.411
-0.394,0.776,0.374,142.639,-104.065,-2.502,67.149,-5.911
-0.601,0.309,0.426,149.902,-93.018,-12.085,55.594,-20.582
-0.691,0.104,0.485,143.066,-75.867,-30.457,39.224,-35.655
-0.772,0.068,0.568,110.84,-56.274,-51.819,22.2,-47.679
-0.816,0.103,0.566,98.572,-56.946,-58.167,9.368,-53.559
-0.897,0.135,0.521,62.317,-59.998,-67.383,6.103,-55.546
-0.915,0.157,0.462,66.833,-58.777,-75.378,6.599,-57.478
-0.907,0.243,0.366,50.537,-43.823,-84.229,9.017,-60.272
-0.741,0.366,0.272,34.546,-37.598,-89.539,13.277,-61.805
-0.656,0.348,0.218,5.249,-36.438,-78.613,17.76,-61.806
-0.717,0.437,0.189,0.183,-28.015,-62.317,23.566,-60.028
-0.711,0.595,0.127,8.85,-13.733,-45.532,30.734,-55.749
-0.729,0.585,0.17,-8.667,-3.662,0.366,34.123,-53.423
-0.757,0.602,0.171,10.681,1.465,1.648,36.609,-51.541
-0.749,0.598,0.188,5.005,-0.488,-1.831,38.259,-50.033
-0.748,0.555,0.183,7.812,1.831,-1.892,37.354,-50.639
-0.749,0.55,0.202,3.906,2.869,-2.136,36.703,-51.101
-0.746,0.568,0.209,7.141,5.798,-0.305,36.311,-51.228
-0.778,0.561,0.153,11.658,12.39,2.808,35.686,-52.046
-0.679,0.544,0.2,-5.005,17.517,56.885,36.101,-51.466
-0.663,0.396,0.124,-18.738,27.771,96.252,35.073,-52.745
-0.752,0.411,0.195,-36.011,50.11,114.502,32.953,-54.79
-0.863,0.185,0.316,-42.297,64.392,102.417,26.567,-59.409
-0.807,0.121,0.43,-68.542,72.632,85.571,18.833,-63.465
-0.722,0.029,0.483,-85.083,70.984,67.505,12.207,-62.915
-0.69,0.107,0.692,-80.078,62.012,52.551,6.946,-57.4
-0.652,0.292,0.807,-100.281,52.979,39.063,8.332,-49.25
-0.568,0.338,0.732,-120.483,51.88,26.367,11.464,-43.029
-0.507,0.53,0.645,-123.047,65.43,-3.357,18.644,-37.565
-0.403,0.729,0.508,-100.525,88.562,-24.841,28.822,-32.934
-0.219,0.898,0.617,-53.467,113.647,-21.118,39.528,-25.656
0.004,0.983,0.651,-45.471,115.051,-23.254,49.624,-15.841
0.19,1.003,0.596,-13,97.778,-23.743,56.287,-5.649
0.342,0.923,0.555,-15.625,81.055,-24.658,57.339,4.028
0.517,0.685,0.407,4.517,51.208,-25.818,55.735,14.029
0.536,0.652,0.488,-1.526,30.884,-18.738,51.559,22.383
0.576,0.727,0.572,7.08,17.456,-16.296,46.595,28.663
0.509,0.74,0.432,-7.324,-5.188,-2.869,44.429,32.275
0.474,0.717,0.321,-5.188,5.798,-2.686,45.663,31.908
0.404,0.801,0.387,-29.541,-1.16,9.521,48.894,29.707
0.405,0.773,0.347,-11.536,-1.831,2.747,52.462,27.969
0.414,0.793,0.354,-12.329,-3.601,3.906,54.423,26.596
0.409,0.858,0.328,-3.113,1.221,3.662,56.172,24.87
0.4,0.796,0.311,3.906,1.16,3.052,56.774,25.038
aX,aY,aZ,gX,gY,gZ,Roll,Pitch
0.362,0.816,0.35,2.747,3.54,1.282,57.516,24.199
0.414,0.828,0.349,6.47,3.357,0.793,57.838,24.011
0.66,0.954,0.434,-14.771,-3.662,29.419,55.473,26.462
0.574,1,0.451,32.104,-39.185,51.819,54.581,27.078
0.35,0.92,0.508,37.903,-69.763,41.931,54.399,26.03
0.133,0.988,0.486,65.857,-97.229,6.775,56.611,21.795
0.011,0.904,0.531,102.661,-123.23,-24.414,59.486,13.974
-0.205,0.792,0.55,134.583,-128.174,-44.25,59.829,3.983
-0.439,0.329,0.548,145.02,-124.268,-66.528,54.194,-7.723
-0.543,0.214,0.603,98.022,-107.483,-84.961,41.593,-20.389
-0.672,0.172,0.559,80.75,-100.098,-75.928,27.258,-34.375
-0.802,0.102,0.435,89.233,-88.684,-63.965,14.065,-46.933
-0.871,0.231,0.421,55.176,-71.289,-49.255,11.533,-53.432
-0.877,0.268,0.379,32.471,-51.208,-46.936,11.831,-58.777
-0.833,0.296,0.298,5.005,-44.128,-52.917,13.566,-62.311
-0.905,0.365,0.206,9.949,-52.979,-62.988,17.307,-63.414
-0.707,0.52,0.181,-31.677,-33.508,-72.937,22.565,-61.583
-0.74,0.547,0.044,2.136,-20.386,-70.923,27.893,-59.494
-0.668,0.657,0.042,-0.793,-10.925,-43.03,34.369,-54.634
-0.726,0.612,0.152,23.56,-5.188,-0.122,39.151,-50.101
-0.719,0.588,0.054,26.611,1.526,-0.488,39.993,-49.652
-0.74,0.609,0.141,21.545,1.648,0.427,40.591,-48.797
-0.742,0.61,0.163,0.854,2.014,0.366,39.17,-49.797
-0.728,0.577,0.15,15.381,5.798,2.319,38.735,-50.226
-0.707,0.622,0.178,2.197,7.08,3.479,39.012,-49.413
-0.689,0.618,0.128,-6.348,13.245,24.719,39.621,-48.847
-0.59,0.602,0.047,-25.879,24.17,85.754,41.235,-47.685
-0.714,0.544,0.059,-45.593,47.18,116.821,41.139,-48.118
-0.878,0.287,0.192,-31.677,66.711,102.844,35.246,-53.887
-0.9,0.19,0.266,-60.913,70.007,74.524,27.374,-60.874
-0.889,0.149,0.301,-89.05,64.514,44.922,18.576,-67.129
-0.88,0.246,0.411,-73.486,62.195,24.658,13.137,-67.65
-0.817,0.335,0.51,-78.613,54.077,5.981,13.646,-63.356
-0.747,0.399,0.551,-70.374,47.485,-2.686,16.653,-57.754
-0.659,0.506,0.566,-70.007,57.373,-7.935,21.823,-50.882
-0.624,0.652,0.481,-80.078,106.201,-12.512,28.107,-45.139
-0.451,0.808,0.457,-74.341,121.948,-26.184,36.286,-38.368
-0.213,0.842,0.506,-20.569,125.549,-33.936,45.104,-29.409
0.135,0.918,0.582,-8.728,124.207,-33.386,54.097,-16.853
0.372,0.771,0.459,27.832,101.44,-21.301,58.947,-2.294
0.552,0.761,0.484,18.799,76.111,-15.869,56.234,12.354
0.581,0.655,0.444,-10.559,36.011,-10.315,50.46,24.048
0.519,0.697,0.66,18.86,1.648,-2.258,45.053,29.775
0.423,0.811,0.303,-57.129,15.381,-5.432,46.169,30.782
0.454,0.733,0.448,9.521,-5.066,-2.136,46.894,29.88
0.43,0.769,0.468,-7.263,2.258,-10.254,48.968,27.221
0.372,0.653,0.429,-2.869,5.432,-0.854,51.572,26.332
0.359,0.76,0.411,-26.978,-4.089,3.052,50.686,25.395
0.405,0.779,0.432,-14.893,-4.395,4.272,51.658,24.518
aX,aY,aZ,gX,gY,gZ,Roll,Pitch
0.332,0.828,0.414,5.371,2.319,1.953,53.468,23.005
0.323,0.826,0.424,4.822,5.676,0.122,55.424,21.464
0.346,0.723,0.424,8.728,-1.587,-1.648,55.104,21.428
0.538,0.916,0.508,-6.47,-11.169,17.029,54.541,22.371
0.648,0.992,0.511,27.954,-26.367,49.438,52.717,25.275
0.429,0.986,0.588,21.545,-48.462,72.693,52.023,25.312
0.039,0.817,0.54,51.208,-94.177,31.494,53.846,21.112
-0.147,0.77,0.446,80.505,-127.502,9.155,57.175,13.216
-0.392,0.587,0.333,105.53,-134.521,-19.897,58.868,-1.099
-0.618,0.38,0.372,172.974,-114.319,-20.813,51.558,-20.06
-0.752,0.078,0.382,153.625,-86.609,-21.606,36.554,-38.792
-0.801,0.004,0.439,101.746,-64.209,-35.095,19.387,-54.15
-0.953,-0.041,0.414,80.627,-50.598,-41.382,6.846,-62.012
-0.959,-0.074,0.402,58.899,-41.565,-40.894,-0.489,-64.718
-0.934,-0.008,0.331,57.8,-44.983,-46.082,-1.713,-66.448
-0.994,0.124,0.241,38.208,-42.175,-55.725,0.003,-70.134
-0.931,0.248,0.225,38.086,-30.457,-61.218,4.135,-72.097
-0.925,0.356,0.234,23.315,-25.208,-61.829,10.401,-71.621
-0.864,0.383,0.207,29.114,-24.536,-58.777,16.202,-68.889
-0.823,0.508,0.254,27.771,-19.836,-57.251,22.219,-63.649
-0.685,0.491,0.179,31.067,-16.907,-66.833,27.013,-59.453
-0.693,0.437,0.082,6.348,-14.526,-37.659,30.016,-57.442
-0.77,0.512,0.125,-18.005,-8.545,4.395,32.651,-55.395
-0.798,0.513,0.073,8.667,2.136,-7.019,33.232,-55.736
-0.773,0.614,0.144,7.263,3.784,-4.395,34.124,-55.066
-0.793,0.633,0.156,4.456,6.714,-2.075,35.607,-53.409
-0.767,0.591,0.156,-0.183,6.165,0.732,36.529,-52.403
-0.747,0.51,0.125,2.808,8.911,5.493,36.838,-51.857
-0.638,0.437,0.069,-14.038,13.245,32.043,35.992,-52.885
-0.577,0.635,0.122,-65.857,25.391,87.585,38.109,-50.833
-0.614,0.375,0.1,-48.096,40.649,100.586,36.867,-52.166
-0.854,0.306,0.104,-60.913,58.105,85.51,32.879,-56.186
-0.899,0.259,0.258,-77.271,73.914,66.04,27.7,-60.279
-0.947,0.241,0.4,-78.979,82.031,36.804,19.026,-66.197
-0.979,0.172,0.462,-50.842,59.021,4.15,14.153,-66.928
-0.926,0.333,0.472,-116.028,68.42,-22.461,13.857,-63.337
-0.706,0.51,0.417,-118.347,109.741,-24.414,17.572,-58.797
-0.548,0.661,0.316,-115.723,133.24,-26.428,25.142,-53.186
-0.355,0.847,0.368,-62.988,134.888,-28.259,38.243,-41.864
-0.068,0.813,0.507,-27.283,138,-26.184,50.628,-27.255
0.211,0.951,0.551,10.01,117.065,-26.55,59.848,-11.598
0.305,0.808,0.482,13.245,82.886,-26.55,60.818,1.348
0.428,0.825,0.482,10.864,56.519,-16.907,57.043,12.474
0.463,0.775,0.508,-6.226,39.49,-2.686,53.754,19.724
0.531,0.675,0.624,31.555,9.583,-0.427,48.636,24.847
0.276,0.706,0.453,-2.136,-0.305,-10.254,48.095,25.081
0.376,0.765,0.452,6.714,3.906,-0.671,48.118,24.806
0.379,0.67,0.482,2.197,-1.099,-3.54,47.863,24.295
0.323,0.727,0.421,-17.09,-0.977,-4.211,51.761,21.773
0.373,0.782,0.448,-34.912,-6.409,3.662,51.817,22.797
0.374,0.784,0.379,-14.709,-2.93,-1.77,52.706,22.888
0.384,0.803,0.378,-4.089,-2.502,-0.427,54.84,22.564
aX,aY,aZ,gX,gY,gZ,Roll,Pitch
0.355,0.778,0.416,12.573,3.357,2.197,55.063,22.757
0.364,0.783,0.442,10.559,3.479,-0.366,55.207,22.642
0.735,0.918,0.615,-10.01,-15.991,31.372,51.528,25.991
0.577,1.158,0.603,-7.69,-46.57,62.988,51.39,25.873
0.259,1.025,0.487,40.833,-77.942,64.636,53.349,23.557
-0.023,0.872,0.442,91.98,-109.558,28.931,56.321,18.928
-0.232,0.805,0.418,129.761,-127.869,-11.719,62.203,7.66
-0.495,0.71,0.454,153.32,-122.803,-31.067,61.31,-7.248
-0.62,0.257,0.391,152.893,-102.234,-41.016,50.395,-23.519
-0.704,0.085,0.498,112.366,-84.412,-51.208,34.484,-38.705
-0.83,0.136,0.538,86.182,-73.547,-50.354,20.086,-49.973
-0.907,0.034,0.441,66.345,-57.739,-51.697,8.139,-57.674
-0.898,0.058,0.359,47.791,-52.124,-53.65,4.704,-60.852
-0.953,0.1,0.288,34.729,-42.542,-57.129,4.773,-65.193
-0.923,0.224,0.297,27.527,-32.104,-65.186,6.051,-68.559
-0.806,0.312,0.209,1.038,-26.55,-69.031,10.459,-69.409
-0.869,0.433,0.159,18.066,-23.132,-67.749,16.224,-68.033
-0.789,0.54,0.143,23.315,-26.55,-70.374,23.432,-63.189
-0.633,0.554,0.134,6.531,-20.691,-65.43,30.171,-57.816
-0.693,0.628,0.085,5.249,-9.949,-31.128,35.434,-53.381
-0.735,0.665,0.101,16.052,2.563,5.981,39.591,-49.519
-0.746,0.613,0.161,20.386,4.517,-0.366,40.84,-48.215
-0.735,0.635,0.192,1.526,2.686,3.235,40.67,-48.224
-0.723,0.595,0.185,6.592,5.676,2.38,39.84,-48.612
-0.72,0.589,0.226,4.578,6.226,0.977,38.831,-48.907
-0.719,0.611,0.239,-2.441,3.967,-1.648,38.858,-48.394
-0.68,0.591,0.224,-4.639,5.31,-0.061,38.756,-48.193
-0.677,0.542,0.157,-2.197,7.202,5.188,38.622,-48.405
-0.643,0.649,0.141,-5.859,19.043,42.664,40.289,-47.273
-0.668,0.608,0.111,-31.982,34.18,88.257,41.078,-47.183
-0.759,0.423,0.111,-29.053,51.147,106.75,38.487,-50.274
-0.79,0.235,0.262,-43.03,73.059,98.999,33.196,-54.836
-0.779,0.2,0.338,-80.444,78.43,67.749,25.271,-60.703
-0.812,0.275,0.515,-93.689,78.613,36.682,18.581,-61.999
-0.79,0.481,0.647,-106.628,86.121,10.62,18.176,-56.155
-0.681,0.657,0.678,-82.642,94.177,4.028,23.228,-48.493
-0.435,0.75,0.618,-79.102,91.858,0.671,30.551,-39.694
-0.294,0.763,0.514,-94.849,97.778,-5.127,38.796,-31.321
-0.194,0.869,0.43,-47.974,102.478,-15.32,47.803,-23.017
-0.071,0.844,0.527,-11.353,112.976,-13.672,54.358,-14.491
0.173,0.832,0.558,32.532,108.826,-16.357,58.024,-5.672
0.354,0.812,0.561,31.006,83.679,-13.428,58.063,3.805
0.382,0.784,0.524,3.967,57.8,-15.503,54.588,12.055
0.471,0.762,0.528,24.231,38.818,-4.883,51.115,19.689
0.512,0.687,0.62,26.184,20.142,-0.671,47.214,24.482
0.519,0.731,0.593,-7.935,1.16,-4.517,45.174,26.804
0.408,0.69,0.454,6.47,-2.808,-0.916,44.609,27.864
0.364,0.713,0.5,-36.377,-2.014,4.944,45.027,26.877
0.404,0.807,0.463,-31.494,-0.854,-0.671,48.208,25.444
0.357,0.774,0.402,-16.724,-5.127,-1.892,51.445,23.682
0.384,0.783,0.365,-14.404,-2.747,0.244,53.28,23.147
aX,aY,aZ,gX,gY,gZ,Roll,Pitch
0.349,0.764,0.416,13.611,6.775,2.563,54.601,22.914
0.34,0.727,0.458,26.672,0.977,-1.038,54.465,22.45
0.557,0.889,0.625,1.709,-2.258,11.475,51.943,23.939
0.758,1.184,0.76,-13.733,-11.597,48.401,49.724,25.401
0.473,1.105,0.622,2.563,-24.231,73.12,50.171,24.741
0.203,0.752,0.452,69.58,-60.486,60.669,51.161,23.246
-0.09,0.756,0.431,81.543,-100.22,18.921,55.249,16.915
-0.294,0.687,0.487,106.812,-113.464,-6.104,58.615,4.333
-0.47,0.589,0.469,147.217,-117.371,-15.808,54.978,-11.047
-0.591,0.22,0.41,135.498,-105.591,-26.611,44.312,-26.647
-0.788,0.121,0.612,108.948,-90.027,-43.396,28.994,-39.992
-0.929,0.009,0.509,98.511,-68.604,-49.072,15.32,-51.497
-0.928,0.068,0.443,75.012,-55.42,-46.082,6.267,-58.049
-0.893,0.091,0.38,50.781,-43.945,-42.114,4.074,-60.935
-0.892,0.058,0.298,41.138,-34.302,-47.058,3.224,-65.677
-0.918,0.1,0.229,42.48,-26.55,-54.321,4.666,-69.1
-0.947,0.28,0.176,58.35,-15.747,-63.904,7.911,-71.733
-0.804,0.37,0.29,11.597,5.554,-74.463,12.329,-70.237
-0.758,0.324,0.284,40.894,-3.845,-84.106,16.774,-67.023
-0.609,0.421,0.295,-5.127,-16.602,-91.553,22.996,-60.789
-0.711,0.605,0.212,-31.006,-14.221,-15.93,29.206,-54.811
-0.768,0.636,0.203,10.437,-6.226,11.108,33.386,-52.022
-0.742,0.503,0.137,22.217,0.427,0,36.245,-50.589
-0.768,0.608,0.201,3.662,4.517,1.831,37.359,-50.42
-0.763,0.61,0.253,2.075,3.967,-1.953,36.876,-50.711
-0.746,0.613,0.267,-2.808,4.7,-0.61,36.64,-50.516
-0.734,0.589,0.255,1.953,5.066,0.061,37.405,-49.078
-0.747,0.634,0.192,-0.916,11.78,21.729,37.893,-48.659
-0.693,0.492,0.159,0.061,28.259,69.031,37.369,-49.584
-0.62,0.483,0.212,-27.893,38.696,107.91,37.048,-49.989
-0.684,0.274,0.264,-33.203,53.162,121.643,33.294,-53.157
-0.792,0.047,0.391,-46.57,61.218,107.178,23.539,-59.363
-0.834,0.12,0.588,-79.102,59.998,80.627,15.76,-59.537
-0.802,0.133,0.703,-107.483,48.401,53.528,8.879,-56.899
-0.736,0.164,0.713,-104.126,37.17,39.001,6.66,-52.371
-0.697,0.273,0.609,-111.877,30.09,19.165,9.714,-48.63
-0.655,0.425,0.467,-139.038,52.551,-5.92,14.607,-47.122
-0.56,0.519,0.454,-115.784,91.431,-32.532,21.697,-45.15
-0.367,0.717,0.577,-81.665,119.751,-56.824,31.936,-38.54
-0.005,0.985,0.612,-32.837,128.54,-66.711,45.075,-25.112
0.223,0.926,0.585,-3.052,105.286,-50.659,53.392,-10.413
0.419,0.914,0.561,17.151,75.073,-40.405,56.433,3.639
0.492,0.859,0.516,-5.798,41.992,-30.09,55.437,14.608
0.512,0.784,0.471,3.54,22.888,-13.245,52.286,21.945
0.503,0.763,0.537,10.62,18.616,-9.033,49.485,26.165
0.438,0.685,0.48,4.15,-1.77,-2.502,47.906,27.841
0.44,0.781,0.447,-9.094,15.564,-6.165,48.05,27.875
0.391,0.679,0.407,-2.991,8.423,2.075,48.44,27.144
0.409,0.734,0.413,4.883,-2.869,0.427,49.901,26.496
0.234,0.724,0.358,24.475,-7.812,-0.061,53.048,23.82
0.326,0.598,0.266,4.7,2.197,-0.732,54.045,23.747
0.39,0.725,0.338,-32.776,-14.404,3.235,55.194,23.661
0.402,0.797,0.388,-28.503,-4.822,0.244,56.106,23.248
aX,aY,aZ,gX,gY,gZ,Roll,Pitch
0.34,0.789,0.408,1.831,3.967,3.906,55.203,24.309
0.436,0.827,0.464,-4.761,1.465,6.47,54.479,24.008
0.79,0.969,0.636,-9.521,-25.269,44.678,51.052,26.914
0.536,1.136,0.63,-17.395,-56.58,74.097,51.132,26.102
0.149,1.128,0.488,31.738,-95.337,63.232,54.195,22.455
-0.13,0.964,0.328,103.149,-113.037,36.255,59.43,16.028
-0.317,0.784,0.333,133.301,-114.624,9.338,65.891,3.116
-0.479,0.591,0.346,159.119,-106.201,-2.319,64.081,-11.625
-0.67,0.308,0.396,137.817,-89.6,-23.01,51.247,-28.039
-0.767,0.156,0.481,106.079,-78.979,-39.001,34.043,-42.835
-0.962,0.129,0.451,76.66,-66.04,-39.917,19.578,-54.53
-0.828,0.17,0.38,66.04,-57.617,-35.889,11.81,-59.891
-0.842,0.16,0.333,49.072,-51.514,-40.405,9.245,-62.678
-0.942,0.188,0.259,34.79,-46.509,-54.321,9.54,-66.38
-0.942,0.345,0.267,35.706,-26.367,-64.331,12.913,-66.982
-0.937,0.407,0.225,43.091,-18.616,-70.74,16.06,-67.136
-0.825,0.477,0.249,40.71,-20.142,-63.538,20.553,-64.552
-0.771,0.465,0.251,33.691,-20.447,-59.021,25.12,-60.529
-0.685,0.497,0.23,17.7,-21.606,-58.105,28.81,-57.142
-0.742,0.497,0.169,-16.785,-14.587,-15.015,31.553,-54.77
-0.774,0.531,0.136,12.573,-3.845,0,32.923,-54.243
-0.773,0.573,0.176,1.099,-0.061,-1.221,34.461,-53.312
-0.759,0.593,0.196,8.606,3.601,1.282,35.103,-52.999
-0.763,0.557,0.227,9.888,5.188,1.404,35.532,-52.313
-0.752,0.54,0.223,2.197,4.944,2.319,35.639,-51.683
-0.779,0.632,0.066,9.277,9.827,4.089,36.535,-51.483
-0.697,0.518,0.141,2.93,30.701,43.396,36.28,-51.933
-0.639,0.544,0.167,-39.978,35.828,83.74,37.349,-51.096
-0.637,0.503,0.188,-50.171,42.725,109.07,38.039,-50.497
-0.733,0.344,0.24,-37.537,64.758,102.6,34.231,-52.914
-0.78,0.142,0.372,-49.744,75.439,75.134,27.431,-56.987
-0.862,0.226,0.482,-70.679,83.008,51.453,20.359,-59.612
-0.769,0.171,0.548,-91.98,88.684,40.588,13.981,-59.333
-0.567,0.275,0.637,-111.206,85.083,12.512,12.725,-53.601
-0.57,0.538,0.725,-108.032,78.186,-20.935,18.312,-45.92
-0.413,0.811,0.542,-74.463,83.679,-17.944,28.018,-37.352
-0.285,0.972,0.459,-58.044,91.736,-3.235,40.955,-27.603
-0.106,0.966,0.49,-34.363,105.347,2.197,51.575,-19.117
0.104,0.969,0.536,-5.554,106.506,-15.869,60.019,-9.386
0.37,0.849,0.542,20.996,79.773,-46.265,61.615,1.114
0.486,0.909,0.581,0.061,59.326,-17.456,57.933,11.308
0.384,0.794,0.504,4.944,30.029,-6.226,54.119,18.017
0.427,0.689,0.462,12.878,26.123,-9.46,50.491,23.379
0.538,0.675,0.461,9.888,23.621,-5.493,48.434,26.588
0.47,0.713,0.586,7.324,7.08,-2.319,46.627,27.416
0.398,0.798,0.455,0,-4.333,-3.967,46.942,27.765
0.432,0.765,0.441,-9.399,-4.028,1.404,47.818,27.483
0.406,0.665,0.469,-7.324,0.61,7.324,48.611,25.801
0.377,0.762,0.386,-22.827,1.709,4.395,51.476,24.959
0.374,0.771,0.362,-17.151,-4.089,2.319,52.231,25.076
0.384,0.838,0.392,-4.639,-2.869,1.282,53.726,24.157
aX,aY,aZ,gX,gY,gZ,Roll,Pitch
0.367,0.828,0.421,6.592,3.601,1.831,55.898,22.876
0.416,0.883,0.452,5.005,0.732,5.676,55.987,22.62
0.649,0.81,0.46,-3.967,-0.854,26.855,53.289,25.679
0.649,0.998,0.606,16.724,-32.532,63.904,51.048,27.38
0.331,1.043,0.511,25.879,-74.28,62.195,52.342,25.698
0.079,0.922,0.479,52.368,-100.586,36.377,54.671,21.686
-0.112,0.776,0.425,113.22,-113.098,-5.798,59.155,12.574
-0.35,0.753,0.432,147.278,-104.858,-13.367,62.121,-0.743
-0.465,0.661,0.477,149.536,-102.478,-1.77,57.244,-13.244
-0.673,0.105,0.497,146.912,-98.022,2.014,43.336,-28.585
-0.77,-0.044,0.49,112.061,-79.956,-30.396,26.569,-43.229
-0.864,-0.012,0.49,86.304,-59.021,-41.87,11.84,-53.122
-0.942,-0.136,0.396,52.429,-41.199,-48.279,-1.313,-60.014
-0.927,-0.073,0.362,52.124,-35.706,-55.664,-3.864,-63.353
-0.963,0.076,0.329,44.25,-30.09,-62.683,-2.053,-66.812
-0.88,0.132,0.29,31.433,-28.687,-68.665,-0.012,-69.645
-0.888,0.256,0.255,34.79,-27.1,-77.026,5.788,-70.476
-0.822,0.457,0.271,36.56,-22.949,-83.74,13.862,-67.532
-0.705,0.498,0.185,27.954,-23.682,-81.543,21.304,-63.057
-0.7,0.629,0.183,6.409,-16.357,-75.806,29.593,-56.708
-0.697,0.657,0.147,-21.973,-10.376,-10.498,36.505,-50.924
-0.76,0.665,0.139,14.343,-2.808,4.333,39.834,-48.471
-0.75,0.644,0.152,5.31,0.549,3.479,41.117,-47.455
-0.747,0.596,0.192,16.724,1.465,3.418,40.298,-48.237
-0.746,0.527,0.199,-2.625,1.953,-0.061,38.295,-49.938
-0.752,0.548,0.219,12.634,4.272,-2.93,36.825,-50.872
-0.743,0.595,0.266,5.737,6.531,-0.916,36.037,-50.896
-0.748,0.582,0.247,2.136,4.395,0.122,35.729,-50.815
-0.73,0.625,0.212,-4.395,5.859,6.836,36.983,-49.584
-0.604,0.358,0.121,-47.424,4.517,51.086,36.218,-50.614
-0.842,0.633,0.041,-27.466,36.499,86.426,36.327,-52.008
-0.75,0.371,0.034,-41.26,63.538,92.651,33.92,-55.273
-0.769,0.319,0.203,-45.044,67.749,94.421,29.346,-59.758
-0.781,0.251,0.355,-45.227,68.542,78.003,26.168,-61.625
-0.731,0.269,0.446,-93.628,70.862,53.04,20.707,-62.249
-0.827,0.237,0.445,-60.364,65.552,29.663,17.439,-59.849
-0.775,0.329,0.725,-91.309,71.106,2.319,16.432,-54.14
-0.637,0.54,0.816,-94.849,77.332,-19.714,19.721,-46.748
-0.412,0.797,0.622,-120.544,82.581,-20.874,27.108,-39.387
-0.354,0.865,0.471,-56.641,100.403,-10.864,36.525,-30.809
-0.209,0.93,0.528,-36.926,109.497,-2.502,46.99,-22.117
-0.038,0.845,0.608,7.874,107.361,-7.935,54.53,-13.898
0.18,0.844,0.612,7.019,93.262,-20.325,57.046,-5.829
0.361,0.84,0.533,3.784,63.477,-22.949,56.382,4.054
0.462,0.756,0.479,-8.667,53.284,-13.55,53.484,13.651
0.531,0.724,0.493,12.878,45.593,-6.714,50.432,21.936
0.517,0.619,0.481,9.644,29.602,-1.343,47.125,27.797
0.482,0.66,0.634,18.005,5.188,-1.282,43.711,29.929
0.382,0.798,0.455,-6.042,-3.54,-9.399,44.876,28.785
0.398,0.715,0.368,-7.202,-7.874,3.357,46.706,27.621
0.396,0.748,0.489,3.052,-6.897,2.014,48.805,25.285
0.308,0.823,0.431,-31.921,-1.831,0.183,53.423,22.728
0.359,0.715,0.37,-23.56,-4.211,4.944,53.653,23.071
0.373,0.803,0.37,-20.203,-1.282,1.709,54.611,22.266
0.363,0.82,0.377,-6.287,-3.235,2.136,56.544,21.729
0.346,0.818,0.348,-0.549,-1.404,1.343,56.935,22.489
aX,aY,aZ,gX,gY,gZ,Roll,Pitch
0.347,0.801,0.439,20.081,5.981,1.892,57.107,21.719
0.541,0.874,0.602,-0.977,5.188,9.155,54.297,23.041
0.618,1.111,0.63,6.287,-7.69,33.936,52.757,24.144
0.483,1.048,0.609,13.672,-33.081,62.988,51.721,24.028
0.221,1.014,0.558,21.545,-67.2,57.739,53.104,21.608
-0.026,0.807,0.48,51.758,-98.755,29.236,56.641,15.788
-0.173,0.712,0.459,94.299,-116.76,-0.488,58.83,6.937
-0.385,0.805,0.499,102.661,-110.901,-14.282,58.701,-5.321
-0.556,0.362,0.523,139.404,-95.703,-23.682,49.807,-18.913
-0.691,0.2,0.556,125.793,-76.782,-38.452,37.351,-31.802
-0.701,0.14,0.566,87.708,-71.167,-48.584,25.417,-41.675
-0.791,0.249,0.567,76.111,-64.331,-47.18,15.102,-48.684
-0.897,0.175,0.441,49.438,-49.988,-46.631,11.528,-53.698
-0.937,0.122,0.431,56.091,-40.466,-48.706,10.016,-57.498
-0.869,0.137,0.38,50.537,-37.109,-52.246,9.843,-60.919
-0.887,0.262,0.364,44.617,-36.682,-54.016,10.036,-63.879
-0.922,0.33,0.32,27.649,-32.043,-57.19,12.281,-64.547
-0.819,0.301,0.245,20.935,-31.067,-72.205,15.425,-64.527
-0.772,0.327,0.136,68.054,-22.766,-75.439,18.904,-64.526
-0.73,0.531,0.157,-15.32,-25.452,-63.171,23.937,-62.077
-0.765,0.577,0.155,-13.184,-7.874,-17.029,28.754,-58.801
-0.771,0.574,0.136,13.916,2.563,6.104,32.994,-55.452
-0.786,0.545,0.175,11.536,7.69,3.418,35.555,-52.858
-0.781,0.564,0.253,11.78,7.019,-1.099,35.347,-52.621
-0.765,0.558,0.257,5.798,3.967,-0.549,34.928,-52.428
-0.754,0.602,0.242,-16.357,9.216,-2.136,35.164,-51.528
-0.759,0.549,0.254,9.644,6.897,-0.366,35.229,-50.888
-0.747,0.559,0.251,-3.113,6.531,3.784,35.452,-50.628
-0.733,0.555,0.235,-7.69,10.803,13.306,35.732,-50.47
-0.664,0.455,0.162,-18.066,20.325,57.129,34.873,-51.581
-0.668,0.458,0.137,-37.354,33.875,91.797,34.777,-52.292
-0.687,0.421,0.2,-43.945,52.246,104.37,33.549,-53.639
-0.822,0.177,0.267,-60.608,65.857,95.886,27.181,-59.198
-0.793,0.06,0.361,-69.397,72.571,72.327,19.675,-63.58
-0.857,0.105,0.423,-106.873,74.28,46.509,12.668,-65.115
-0.751,0.233,0.601,-101.99,71.472,25.024,9.034,-61.506
-0.663,0.502,0.767,-116.272,61.584,-5.249,13.518,-52.709
-0.546,0.704,0.649,-65.552,54.26,-26.794,22.508,-44.283
-0.429,0.774,0.535,-46.814,62.317,-25.513,32.34,-35.26
-0.306,0.868,0.481,-40.405,79.956,-22.705,42.46,-27.417
-0.272,0.891,0.428,-8.24,95.703,-21.851,51.168,-21.939
-0.132,0.926,0.511,-0.061,96.191,-20.081,56.812,-15.999
0.029,0.888,0.506,24.353,89.539,-20.264,60.239,-9.529
0.284,0.844,0.488,23.376,79.163,-20.996,61.397,-1.296
0.398,0.747,0.478,27.832,61.462,-15.991,58.751,8.365
0.546,0.696,0.465,8.667,44.006,-9.644,53.959,18.688
0.565,0.742,0.594,4.883,23.926,-3.845,48.234,26.209
0.511,0.768,0.601,-0.061,-1.526,-4.211,45.117,28.995
0.425,0.703,0.44,13.184,-1.282,-3.723,44.776,29.703
0.375,0.709,0.466,-21.24,2.075,2.319,46.064,27.526
0.439,0.667,0.437,-16.479,-1.892,4.456,47.428,26.909
0.373,0.725,0.388,-13.184,-4.456,0.854,49.847,26.062
0.383,0.833,0.392,-19.287,-3.662,-0.793,51.884,24.894
0.374,0.811,0.332,-13.489,-4.761,1.526,54.005,24.713
aX,aY,aZ,gX,gY,gZ,Roll,Pitch
0.325,0.8,0.432,18.433,3.784,2.686,56.187,22.429
0.392,0.783,0.562,-1.648,4.395,6.531,54.94,21.955
0.647,1.011,0.553,-5.249,-11.902,28.687,53.062,24.075
0.52,1.006,0.608,6.104,-45.105,73.975,51.508,24.18
0.234,1.057,0.546,27.405,-72.998,79.224,53.14,21.829
-0.048,0.816,0.455,80.688,-96.802,50.842,56.752,16.903
-0.233,0.774,0.368,111.084,-106.995,12.268,60.905,6.491
-0.471,0.616,0.351,133.545,-99.426,-11.658,61.152,-8.001
-0.61,0.329,0.431,144.531,-87.83,-23.56,50.278,-24.429
-0.719,0.157,0.53,122.131,-75.134,-41.26,35.414,-38.926
-0.797,0.111,0.54,90.332,-62.744,-52.307,20.801,-49.573
-0.865,0.18,0.536,79.773,-51.697,-51.331,12.111,-53.927
-0.925,0.143,0.516,55.115,-37.476,-46.631,8.552,-56.337
-1.036,0.257,0.648,80.017,-17.944,-45.105,9.214,-57.099
-0.836,0.086,0.434,45.593,-38.879,-39.246,8.934,-58.593
-0.897,0.066,0.309,13.489,-53.894,-49.316,7.568,-61.743
-0.875,0.228,0.199,10.01,-41.443,-70.251,9.114,-64.822
-0.768,0.316,0.169,20.752,-21.118,-94.971,11.088,-68.777
-0.642,0.456,0.168,40.344,-17.761,-118.164,17.955,-66.847
-0.662,0.536,0.05,-25.513,-18.433,-72.51,27.085,-60.838
-0.799,0.825,0.132,6.104,-1.77,11.169,36.178,-52.587
-0.737,0.578,0.145,23.682,3.174,1.221,39.731,-49.255
-0.751,0.647,0.2,4.333,1.038,4.089,40.818,-48.159
-0.734,0.553,0.181,16.174,4.7,1.526,40.103,-48.361
-0.742,0.579,0.23,1.526,3.784,1.282,37.626,-50.125
-0.736,0.614,0.235,-1.648,4.211,-4.7,37.834,-49.412
-0.728,0.631,0.203,-1.709,5.066,-0.61,37.838,-49.351
-0.701,0.591,0.121,-9.277,8.179,27.954,38.726,-48.84
-0.637,0.559,0.106,-26.489,16.235,81.36,39.74,-48.43
-0.658,0.481,0.085,-41.26,31.433,106.995,39.206,-49.584
-0.852,0.396,0.174,-37.72,51.27,99.854,35.042,-53.805
-0.904,0.165,0.235,-56.641,67.688,79.956,27.238,-60.735
-0.912,0.04,0.305,-72.327,78.247,58.533,17.553,-67.973
-0.79,0.109,0.444,-95.642,85.754,37.17,11.017,-68.544
-0.713,0.165,0.623,-130.127,89.111,7.69,7.41,-63.183
-0.679,0.483,0.793,-120.789,69.946,-9.949,11.925,-53.269
-0.508,0.687,0.75,-88.745,55.481,-21.484,21.072,-42.032
-0.393,0.7,0.579,-46.143,61.096,-20.813,29.637,-33.858
-0.311,0.813,0.524,-62.561,86.914,-17.517,39.523,-26.645
-0.192,0.897,0.503,-33.691,109.192,-21.667,48.476,-19.849
-0.042,0.836,0.541,-10.864,112.183,-28.687,54.187,-13.551
0.353,0.937,0.743,-26.306,103.149,-40.649,56.352,-2.632
0.549,0.819,0.583,11.108,63.843,-46.692,54.796,8.99
0.68,0.693,0.563,-10.376,40.039,-17.212,48.791,20.645
0.655,0.778,0.649,-1.404,24.353,-12.939,43.643,28.577
0.461,0.609,0.536,-6.348,-2.319,-1.892,41.239,32.223
0.483,0.726,0.464,7.385,-0.183,-5.249,41.451,32.526
0.5,0.724,0.477,-14.893,0.854,-4.333,43.51,30.632
0.47,0.81,0.446,-17.029,2.686,-2.502,46.588,29.002
0.444,0.697,0.37,-6.409,6.531,7.141,48.825,28.885
0.452,0.699,0.403,4.883,-1.892,6.042,49.278,28.879
0.363,0.701,0.333,8.606,-5.371,-2.136,51.362,27.695
0.452,0.777,0.381,0.916,-6.653,0.061,51.738,27.878
0.427,0.775,0.364,-7.996,-4.211,-0.549,52.689,27.158
aX,aY,aZ,gX,gY,gZ,Roll,Pitch
0.406,0.721,0.473,-6.714,5.493,8.484,52.734,26.172
0.572,0.809,0.459,-50.11,4.944,27.222,50.926,27.896
0.676,0.931,0.572,7.874,-20.935,56.458,49.164,29.121
0.337,1.005,0.507,7.69,-57.007,75.745,50.764,26.431
0.128,0.966,0.442,43.03,-84.595,62.5,54.8,22.159
-0.167,0.899,0.416,75.928,-109.863,28.687,60.306,12.856
-0.358,0.75,0.31,128.662,-119.019,-1.465,65.152,-0.879
-0.517,0.601,0.347,143.188,-99.487,-3.113,61.172,-14.43
-0.657,0.226,0.498,137.39,-82.764,-6.226,46.916,-30.105
-0.749,0.007,0.483,113.77,-68.97,-29.663,29.413,-45.042
-0.83,-0.02,0.406,104.309,-59.57,-48.401,14.045,-55.177
-0.927,0.022,0.459,62.866,-49.622,-50.842,3.684,-59.544
-0.931,0.067,0.402,60.791,-43.579,-55.847,1.146,-63.003
-1.033,0.208,0.336,51.514,-35.645,-51.27,3.919,-66.383
-0.908,0.193,0.3,37.842,-28.87,-60.181,6.846,-67.476
-0.85,0.207,0.229,51.819,-33.997,-67.871,9.735,-68.907
-0.818,0.358,0.21,32.227,-37.598,-76.721,14.377,-68.174
-0.712,0.411,0.168,15.503,-35.217,-83.008,18.898,-65.782
-0.678,0.493,0.095,5.188,-24.475,-72.876,25.074,-61.978
-0.757,0.7,0.116,-17.395,-9.399,-4.761,32.979,-55.363
-0.806,0.601,0.085,19.897,1.526,3.479,36.41,-52.66
-0.788,0.594,0.132,2.502,2.991,0,37.985,-51.299
-0.782,0.579,0.147,4.761,4.028,3.723,37.983,-51.178
-0.765,0.562,0.182,4.883,4.395,1.099,36.245,-52.615
-0.755,0.525,0.172,5.127,3.906,1.221,35.63,-52.773
-0.736,0.553,0.166,5.798,8.911,6.042,35.515,-52.659
-0.658,0.567,0.102,-17.334,20.63,56.702,36.525,-51.806
-0.56,0.517,0.031,-37.659,46.631,105.957,38.171,-50.763
-0.82,0.266,0.12,-36.865,55.603,112.671,34.149,-54.911
-1.065,0.19,0.235,-48.157,64.148,85.205,26.114,-62.493
-0.845,0.09,0.376,-59.998,67.139,57.068,17.485,-68.3
-0.784,0.297,0.428,-148.682,62.683,45.776,12.85,-67.803
-0.869,0.401,0.624,-133.484,39.856,47.424,13.978,-61.563
-0.723,0.376,0.692,-105.957,28.748,25.269,16.808,-53.1
-0.709,0.498,0.605,-120.605,30.762,-5.798,22.071,-47.5
-0.663,0.592,0.448,-105.103,58.594,-39.673,26.195,-44.495
-0.607,0.817,0.458,-49.5,79.163,-64.88,33.222,-40.412
-0.336,1.086,0.566,-28.809,98.816,-60.913,43.902,-32.431
-0.108,1.088,0.531,-25.024,110.779,-50.11,53.66,-22.66
0.119,1.01,0.512,20.691,102.539,-40.222,60.463,-11.686
0.282,0.925,0.531,23.865,78.735,-31.921,62.481,-0.522
0.411,0.788,0.54,26.245,52.368,-33.264,59.686,9.183
0.535,0.705,0.512,25.757,35.889,-25.818,54.003,18.527
0.556,0.745,0.52,1.038,18.982,-10.376,48.928,25.146
0.446,0.702,0.576,-5.371,-1.038,1.465,45.417,28.12
0.447,0.69,0.472,10.681,0.122,-1.892,44.689,29.368
0.416,0.674,0.476,3.54,0.122,0.732,45.468,28.199
0.43,0.705,0.484,-11.536,-3.723,3.662,46.215,26.928
0.409,0.725,0.481,-18.066,-3.54,-0.549,47.493,26.684
0.401,0.754,0.443,-9.399,-6.47,-2.563,48.73,25.81
aX,aY,aZ,gX,gY,gZ,Roll,Pitch
0.571,0.483,-0.659,6.592,-8.179,1.16,28.973,34.962
0.629,0.43,-0.802,-26.733,25.635,6.042,25.781,34.871
0.549,0.401,-0.696,28.137,5.188,7.202,25.324,34.713
0.577,0.409,-0.688,-5.615,-2.625,1.465,25.128,34.976
0.511,0.75,-0.607,10.132,-0.61,2.258,28.962,33.47
0.525,0.482,-0.729,-5.92,4.761,4.761,30.438,32.454
0.481,0.592,-0.736,17.456,14.832,2.197,32.805,30.541
0.382,0.649,-0.869,31.86,44.922,5.493,35.23,26.303
0.261,0.772,-0.876,66.101,93.811,26.367,34.649,22.071
0.175,0.784,-0.658,70.313,98.938,40.588,39.461,17.164
-0.074,0.912,-0.543,40.405,92.712,42.664,45.726,9.84
-0.214,0.831,-0.361,28.992,85.022,49.866,53.484,2.072
-0.401,0.823,-0.195,20.386,91.309,56.091,61.36,-7.724
-0.441,0.839,0.006,18.921,99.548,66.895,65.231,-17.524
-0.398,0.622,0.266,-22.217,108.887,76.66,64.578,-24.918
-0.434,0.284,0.571,-5.92,70.984,48.95,55.053,-32.287
-0.505,0.333,0.688,-1.099,24.536,15.808,41.526,-34.568
-0.606,0.406,0.617,-1.099,1.343,-6.165,29.634,-35.732
-0.667,0.376,0.55,-0.427,0.793,-2.014,23.09,-38.3
-0.622,0.426,0.587,3.723,0.854,-1.648,24.228,-39.725
-0.672,0.523,0.609,1.831,0.977,0.427,26.377,-41.224
-0.662,0.521,0.601,-3.967,-2.686,1.648,27.663,-41.3
-0.658,0.408,0.545,-5.188,-1.648,0.671,28.134,-41.052
-0.628,0.431,0.572,3.296,-1.953,-1.404,28.239,-41.202
-0.646,0.49,0.595,3.723,-7.263,-1.77,28.019,-41.221
-0.483,0.457,0.631,4.028,-26.306,-13.611,27.953,-39.346
-0.407,0.488,0.536,6.042,-80.994,-32.776,30.374,-35.924
-0.537,0.58,0.17,0.305,-109.009,-43.457,35.408,-36.604
-0.551,0.728,-0.098,-2.441,-124.39,-36.987,43.986,-37.572
-0.227,0.692,-0.358,-5.005,-132.141,-41.321,55.031,-34.555
-0.156,0.814,-0.749,-18.921,-131.653,-57.312,57.412,-26.13
-0.047,0.703,-0.917,-71.289,-108.459,-30.945,51.474,-15.148
0.229,0.61,-0.918,-42.908,-85.388,-24.597,43.705,-2.825
0.29,0.615,-0.807,-71.472,-61.584,-9.827,38.829,4.143
0.503,0.401,-0.976,-38.757,-48.767,-13.306,31.851,12.768
0.519,0.293,-0.803,8.606,5.188,-3.479,26.62,21.091
0.629,0.329,-0.753,25.024,-2.625,-1.77,22.986,27.549
0.608,0.331,-0.718,-1.038,-1.709,0.427,18.891,32.679
0.6,0.358,-0.675,4.089,-0.793,3.601,19.168,36.116
0.609,0.395,-0.67,5.737,0.183,1.16,20.76,37.818
0.612,0.372,-0.706,3.418,-0.061,0,21.571,37.83
0.602,0.392,-0.692,1.953,2.319,3.174,22.517,37.712
0.598,0.372,-0.652,-4.761,0.366,2.93,22.808,37.812
0.601,0.418,-0.636,-15.564,1.16,8.545,23.284,37.874
0.585,0.438,-0.642,1.16,-0.427,2.258,24.558,37.744
0.608,0.573,-0.624,-6.531,-2.075,9.033,27.228,37.429
0.578,0.517,-0.667,2.93,0,1.099,29.089,36.352
aX,aY,aZ,gX,gY,gZ,Roll,Pitch
0.555,0.387,-0.705,9.766,-7.141,-0.183,28.56,35.513
0.556,0.329,-0.738,10.62,11.047,-0.549,26.828,35.025
0.581,0.393,-0.69,3.357,2.136,-1.648,24.29,35.027
0.576,0.406,-0.746,1.77,4.517,-3.113,22.468,34.881
0.593,0.401,-0.666,37.537,2.38,-16.357,22.693,35.557
0.559,0.384,-0.75,35.461,0.488,-4.211,23.348,35.297
0.524,0.538,-0.847,4.7,25.085,-2.502,24.696,32.989
0.398,0.586,-0.925,47.913,67.2,2.93,26.64,29.172
0.256,0.666,-0.883,67.505,94.177,10.254,29.614,23.273
0.182,0.717,-0.85,68.237,101.318,22.278,33.682,17.515
-0.021,0.852,-0.692,51.88,111.267,42.664,39.28,10.544
-0.139,0.799,-0.408,48.706,116.089,56.885,46.82,3.839
-0.325,0.745,-0.093,36.011,102.844,60.608,56.444,-4.64
-0.425,0.82,0.213,27.771,105.53,57.007,67.443,-15.132
-0.384,0.515,0.436,12.756,90.942,50.964,66.008,-23.821
-0.502,0.4,0.728,-1.526,50.598,39.978,50.012,-30.362
-0.544,0.409,0.71,-7.324,8.789,1.831,37.513,-31.804
-0.563,0.442,0.625,-0.854,1.099,-2.991,28.916,-33.081
-0.562,0.407,0.621,-4.761,-3.723,-2.502,25.657,-34.53
-0.604,0.505,0.669,0.427,-0.366,2.319,26.929,-35.699
-0.594,0.449,0.612,2.625,0.732,1.892,27.724,-36.803
-0.608,0.467,0.644,4.639,-0.671,1.282,27.739,-37.077
-0.612,0.494,0.642,-1.465,-1.526,0.549,28.51,-37.055
-0.539,0.444,0.646,-1.282,-4.822,-0.977,28.15,-36.779
-0.466,0.491,0.755,12.329,-35.217,-17.944,28.527,-34.076
-0.475,0.535,0.526,-0.671,-81.238,-31.372,30.669,-32.885
-0.57,0.62,0.246,-2.258,-109.924,-39.49,34.981,-34.205
-0.573,0.719,-0.101,-13.428,-114.075,-29.358,43.132,-37.04
-0.444,0.719,-0.331,-22.705,-112.488,-24.353,51.126,-38.262
-0.283,0.737,-0.544,-9.521,-112.244,-27.344,54.307,-32.919
-0.103,0.688,-0.743,-27.222,-99.976,-27.771,52.217,-22.796
0.087,0.63,-0.81,-35.95,-80.872,-19.409,47.532,-11.399
0.297,0.614,-0.813,-30.945,-67.322,-23.071,42.518,-0.034
0.428,0.54,-0.897,-22.156,-72.632,-31.189,36.5,9.828
0.467,0.574,-0.803,-21.118,-57.678,-11.353,33.511,17.427
0.537,0.487,-0.746,4.272,1.77,-1.038,30.977,23.686
0.631,0.342,-0.712,-19.104,-8.057,-2.197,27.255,29.095
0.664,0.386,-0.641,5.31,-4.944,-0.732,25.805,33.994
0.635,0.391,-0.614,-4.272,-3.54,1.831,23.651,38.049
0.664,0.396,-0.678,17.273,-0.488,1.831,22.245,40.399
0.608,0.554,-0.64,-2.625,2.747,1.77,25.398,39.684
0.698,0.366,-0.576,5.615,0.854,0,25.262,40.653
0.656,0.384,-0.653,1.221,-1.404,0.427,24.922,40.615
0.657,0.387,-0.636,-6.592,-4.883,2.38,25.005,40.921
0.669,0.365,-0.632,1.892,-1.282,0.671,22.298,42.606
aX,aY,aZ,gX,gY,gZ,Roll,Pitch
0.602,0.438,-0.621,3.418,-3.174,1.526,23.48,40.836
0.605,0.416,-0.64,6.409,6.042,-0.122,24.172,40.213
0.59,0.397,-0.686,1.709,3.418,-2.319,24.367,39.019
0.592,0.427,-0.666,-3.601,-3.723,-1.038,25.354,37.584
0.636,0.48,-0.667,17.578,2.93,-6.409,25.548,37.436
0.555,0.38,-0.711,-29.236,19.287,-2.38,24.954,36.508
0.551,0.382,-0.743,15.442,9.766,-4.211,24.657,35.705
0.554,0.337,-0.729,6.409,2.014,2.441,23.335,35.173
0.484,0.483,-0.813,28.32,11.23,-2.686,23.232,32.328
0.423,0.513,-0.914,37.537,49.072,-5.066,24.408,28.997
0.385,0.59,-0.952,53.528,89.783,1.648,26.38,25.246
0.216,0.745,-0.854,50.049,107.849,17.395,31.242,19.601
0.075,0.729,-0.735,52.246,115.234,29.114,35.395,14.286
-0.144,0.802,-0.511,48.279,106.201,28.442,42.756,7.231
-0.263,0.819,-0.233,31.921,101.624,42.053,52.949,-1.725
-0.367,0.806,-0.029,34.363,96.924,46.448,62.221,-11.31
-0.411,0.625,0.239,31.738,99.243,59.082,66.929,-20.935
-0.522,0.406,0.568,11.414,70.801,47.363,58.066,-29.96
-0.521,0.44,0.596,-6.653,20.874,11.719,44.953,-34.39
-0.581,0.487,0.58,-8.667,3.418,5.554,34.573,-36.135
-0.562,0.518,0.631,3.479,6.348,0.977,29.827,-35.981
-0.596,0.537,0.649,-0.549,2.869,2.869,30.7,-35.616
-0.58,0.5,0.588,-0.793,-1.648,-0.427,31.203,-36.045
-0.608,0.501,0.582,3.174,1.831,0.793,31.231,-36.261
-0.592,0.505,0.616,0.793,-0.244,0.793,30.989,-36.777
-0.566,0.518,0.618,-5.188,-5.92,-1.709,31.072,-36.744
-0.557,0.526,0.65,-1.404,-19.836,-11.353,31.172,-35.914
-0.464,0.594,0.607,-6.226,-60.242,-22.034,32.92,-33.55
-0.524,0.594,0.372,-8.85,-92.041,-30.334,35.91,-33.677
-0.471,0.65,0.064,-25.818,-113.892,-28.503,41.927,-34.729
-0.437,0.789,-0.295,-22.766,-129.333,-37.659,52.186,-34.775
-0.104,0.759,-0.48,-17.517,-123.23,-37.842,60.592,-28.656
-0.028,0.761,-0.733,-18.25,-122.192,-35.706,58.972,-17.545
0.208,0.68,-0.783,-35.095,-105.286,-30.945,52.202,-5.475
0.407,0.585,-0.851,-17.273,-91.98,-27.649,43.968,6.927
0.54,0.657,-0.811,-23.682,-59.875,-17.822,38.508,15.166
0.516,0.521,-0.684,-26.367,-30.945,-10.132,34.556,22.827
0.724,0.392,-0.594,-12.878,-15.137,-8.118,30.463,30.956
0.658,0.418,-0.534,3.357,1.404,4.089,29.045,36.523
0.687,0.484,-0.571,4.089,-0.854,-0.183,27.305,40.802
0.695,0.422,-0.528,-5.371,3.967,9.644,25.8,44.524
0.661,0.494,-0.575,8.057,2.136,0.061,27.524,43.373
0.693,0.301,-0.599,-4.089,1.221,4.822,25.552,43.946
0.666,0.418,-0.549,-2.014,-5.371,3.906,24.877,44.296
aX,aY,aZ,gX,gY,gZ,Roll,Pitch
0.635,0.486,-0.578,-0.549,-5.676,0.488,25.816,42.857
0.666,0.493,-0.551,8.667,3.174,-1.099,25.881,43.104
0.676,0.435,-0.622,20.691,2.563,-0.61,27.62,41.939
0.66,0.457,-0.615,-8.24,1.282,1.038,27.853,41.148
0.655,0.456,-0.577,0.61,-0.916,-0.916,27.371,41.555
0.683,0.473,-0.582,4.517,7.202,0.854,26.891,41.623
0.604,0.493,-0.684,0.305,17.822,4.456,27.696,40.055
0.471,0.504,-0.79,48.34,41.443,14.038,28.335,36.488
0.372,0.693,-0.922,41.443,85.51,24.109,30.578,30.056
0.236,0.732,-0.852,52.246,114.075,33.02,33.513,22.554
0.037,0.825,-0.71,46.875,121.033,40.161,38.525,14.625
-0.186,0.735,-0.486,43.762,116.699,45.654,44.803,6.218
-0.345,0.668,-0.194,24.841,95.825,41.016,52.674,-3.985
-0.48,0.7,0.005,20.874,84.961,38.086,59.965,-16.739
-0.513,0.653,0.211,15.32,78.43,39.734,59.978,-28.601
-0.613,0.583,0.353,0.61,65.979,36.743,52.665,-36.551
-0.575,0.483,0.503,-16.357,56.946,36.987,44.864,-39.495
-0.562,0.498,0.661,-7.446,39.551,28.259,37.891,-38.838
-0.581,0.425,0.725,-3.052,21.118,17.334,31.584,-37.881
-0.591,0.423,0.668,6.226,2.747,-1.404,27.952,-36.306
-0.591,0.45,0.664,-3.418,-0.061,-2.136,26.653,-35.523
-0.607,0.457,0.62,-5.981,-2.319,-1.038,26.138,-36.517
-0.606,0.43,0.63,0,1.404,1.343,26.549,-37.46
-0.595,0.426,0.625,0.793,-0.854,-0.305,26.774,-37.801
-0.632,0.487,0.645,1.038,1.099,0.977,27.162,-38.226
-0.602,0.419,0.632,-2.075,0.488,2.502,26.646,-38.28
-0.608,0.424,0.625,3.052,-2.014,-2.075,26.579,-38.372
-0.554,0.459,0.704,1.099,-10.986,-7.324,26.814,-37.16
-0.495,0.404,0.681,-1.831,-40.039,-18.982,26.135,-35.677
-0.447,0.527,0.569,-15.32,-92.834,-36.987,28.573,-33.712
-0.307,0.519,0.052,-28.564,-135.132,-45.166,35.255,-33.081
-0.257,0.745,-0.317,-18.921,-156.372,-46.082,50.629,-32.064
-0.24,0.897,-0.677,-20.569,-148.071,-45.288,64.081,-24.762
0.013,0.799,-0.813,-16.357,-120.361,-33.447,56.947,-12.957
0.193,0.648,-0.881,-28.503,-99.915,-25.94,48.793,-4.07
0.374,0.752,-0.734,-32.593,-76.599,-30.396,44.745,4.42
0.529,0.615,-0.767,-44.8,-52.734,-12.329,39.761,14.592
0.53,0.494,-0.744,-31.067,-30.579,-3.723,35.456,22.083
0.678,0.447,-0.624,-5.188,-20.508,-3.174,32.943,29.831
0.664,0.467,-0.591,3.113,-0.366,1.953,29.107,35.289
0.66,0.406,-0.589,-6.653,0.305,1.404,26.788,39.014
0.651,0.422,-0.621,19.104,2.258,-0.977,25.861,41.634
0.67,0.419,-0.602,2.686,0.732,2.258,25.628,41.88
0.677,0.447,-0.599,-1.16,-0.61,0.732,25.28,42.058
0.67,0.473,-0.578,0.549,-1.16,-0.122,26.144,41.867
0.687,0.433,-0.578,-2.563,-0.854,1.282,26.279,42.527
0.673,0.439,-0.574,2.808,-1.16,1.16,26.649,42.644
0.708,0.47,-0.561,-0.977,-2.747,1.099,26.951,43.119
aX,aY,aZ,gX,gY,gZ,Roll,Pitch
0.673,0.454,-0.61,2.502,-7.446,0.305,26.562,43.018
0.672,0.47,-0.606,4.333,7.568,-0.977,26.998,42.421
0.682,0.465,-0.578,36.072,5.31,0.977,27.258,42.338
0.648,0.459,-0.567,-6.653,1.282,1.892,27.39,41.736
0.659,0.443,-0.64,8.118,19.775,2.197,27.191,41.428
0.56,0.476,-0.633,-1.038,15.32,-2.075,27.693,39.982
0.604,0.382,-0.673,-2.014,5.31,-2.441,26.552,38.856
0.477,0.539,-0.798,21.179,18.494,1.526,27.207,34.852
0.374,0.654,-0.925,38.513,64.087,6.348,29.418,28.853
0.388,0.689,-0.875,53.162,100.464,15.137,31.093,24.859
0.209,0.762,-0.71,54.26,112.244,32.654,36.215,18.874
-0.029,0.742,-0.557,44.556,105.652,40.039,41.586,12.673
-0.209,0.776,-0.327,27.832,90.454,37.476,49.968,5.307
-0.376,0.769,-0.181,12.451,75.134,30.334,59.176,-6.547
-0.485,0.825,-0.03,11.108,72.937,32.227,63.507,-18.422
-0.571,0.65,0.052,21.79,79.285,39.856,60.476,-28.195
-0.528,0.591,0.249,22.827,87.83,37.842,55.32,-34.639
-0.472,0.455,0.574,10.315,72.266,38.391,48.598,-37.72
-0.572,0.455,0.726,-8.24,32.837,19.165,38.809,-38.629
-0.579,0.463,0.666,0.305,7.263,6.409,32.456,-36.003
-0.566,0.437,0.621,2.869,1.16,-2.075,28.096,-34.732
-0.595,0.49,0.636,-1.404,1.587,1.587,27.677,-35.614
-0.573,0.453,0.631,-1.221,1.526,1.892,28.129,-36.308
-0.574,0.474,0.629,-0.183,-0.366,0.916,28.485,-36.459
-0.579,0.449,0.622,0.427,-0.854,1.648,28.58,-36.541
-0.576,0.499,0.635,-0.488,-1.953,0.488,28.784,-36.265
-0.604,0.509,0.621,-2.686,-3.113,-0.732,29.409,-36.395
-0.548,0.464,0.663,-0.549,-9.399,-1.648,29.228,-35.903
-0.422,0.597,0.662,-0.854,-58.411,-21.912,31.622,-33.011
-0.476,0.521,0.388,2.869,-93.689,-38.574,33.946,-33.186
-0.503,0.624,0.091,6.714,-105.042,-43.335,39.708,-34.376
-0.567,0.74,-0.09,-8.789,-104.858,-39.795,48.047,-36.14
-0.407,0.833,-0.31,-12.939,-99.243,-34.058,54.269,-35.698
-0.235,0.808,-0.48,-17.944,-94.604,-25.879,57.878,-28.875
-0.116,0.74,-0.59,-23.254,-85.815,-27.771,57.606,-21.021
0.073,0.725,-0.638,-30.273,-81.665,-26.184,55.534,-10.486
0.182,0.774,-0.715,-51.025,-70.984,-25.33,51.485,-1.413
0.404,0.631,-0.787,-39.307,-67.932,-30.151,45.887,7.812
0.502,0.647,-0.732,-11.169,-46.57,-15.32,41.884,16.209
0.603,0.505,-0.654,-14.893,-33.142,-10.986,37.387,23.677
0.581,0.543,-0.62,17.334,5.676,4.456,33.696,29.905
0.669,0.37,-0.652,1.77,-1.831,-0.244,30.171,34.984
0.63,0.412,-0.613,-1.526,0.183,0.244,27.256,38.432
0.652,0.402,-0.64,0.366,-1.221,3.235,25.784,39.611
0.638,0.447,-0.609,1.648,-1.77,1.953,24.325,40.82
0.583,0.514,-0.632,11.169,-4.456,-2.808,26.678,39.265
0.654,0.487,-0.596,9.338,2.93,-0.061,27.596,39.263
aX,aY,aZ,gX,gY,gZ,Roll,Pitch
0.638,0.497,-0.614,9.338,-8.911,3.052,28.977,38.783
0.676,0.455,-0.61,2.38,2.258,1.099,28.881,39.156
0.623,0.463,-0.702,25.269,4.028,-2.563,27.734,39.379
0.632,0.456,-0.566,3.479,-1.343,-1.77,27.584,39.517
0.642,0.475,-0.666,-1.953,12.817,2.258,27.053,39.299
0.538,0.431,-0.696,-5.981,31.494,2.93,26.976,37.264
0.499,0.451,-0.731,9.705,23.071,1.099,27.22,35.682
0.413,0.569,-0.871,36.682,49.622,11.23,27.962,30.619
0.295,0.666,-0.888,46.509,88.318,20.447,30.238,24.523
0.148,0.678,-0.804,49.072,104.858,23.682,33.581,18.481
-0.107,0.757,-0.632,35.278,109.436,26.794,39.14,10.196
-0.262,0.77,-0.496,31.189,114.868,29.48,45.504,1.055
-0.403,0.827,-0.291,19.287,110.718,35.034,52.704,-9.423
-0.472,0.762,-0.076,25.757,117.554,43.884,58.018,-19.794
-0.399,0.528,0.238,16.846,117.676,45.776,60.131,-27.461
-0.442,0.429,0.679,6.104,78.247,31.128,54.727,-33.365
-0.509,0.531,0.719,-2.93,31.616,12.817,43.192,-33.637
-0.539,0.476,0.665,-0.916,1.221,-1.831,33.431,-31.97
-0.567,0.505,0.585,-4.578,-1.587,0.732,30.066,-32.061
-0.568,0.486,0.606,3.845,0.061,-0.549,30.614,-33.801
-0.561,0.549,0.6,4.395,2.747,1.587,31.244,-35.112
-0.573,0.549,0.622,-2.441,-0.122,0.977,32.22,-35.414
-0.576,0.499,0.6,-0.183,0.549,0.977,32.014,-35.461
-0.56,0.545,0.616,1.343,-1.587,1.831,32.729,-34.986
-0.526,0.562,0.649,-0.122,-8.911,-2.258,32.794,-34.188
-0.521,0.507,0.614,2.991,-25.879,-9.46,32.604,-33.828
-0.455,0.598,0.594,-3.54,-61.89,-19.836,34.494,-31.855
-0.563,0.583,0.287,0.122,-96.802,-27.1,37.091,-33.598
-0.536,0.679,0.061,-1.404,-97.961,-26.062,42.391,-36.227
-0.501,0.692,-0.161,-10.681,-105.591,-31.616,49.264,-37.596
-0.373,0.719,-0.344,-8.484,-110.168,-28.687,53.493,-36.373
-0.155,0.804,-0.502,-12.695,-105.164,-23.315,57.723,-27.191
-0.057,0.771,-0.635,-15.137,-96.313,-29.419,56.609,-17.665
0.091,0.68,-0.812,-28.931,-84.534,-20.081,51.74,-7.478
0.306,0.707,-0.714,-15.625,-81.665,-30.518,47.969,2.663
0.568,0.66,-0.79,-21.545,-74.402,-29.114,42.374,12.544
0.603,0.54,-0.749,-30.334,-37.231,-6.775,36.916,21.351
0.607,0.552,-0.677,-13.672,0.549,5.31,34.362,28.582
0.675,0.463,-0.571,-2.075,0.61,2.258,30.805,34.579
0.637,0.355,-0.629,1.648,-1.221,1.099,27.673,37.849
0.672,0.499,-0.557,3.723,5.249,1.77,27.719,40.191
0.628,0.406,-0.609,7.446,-5.554,0.732,26.05,41.756
0.662,0.447,-0.587,-4.883,-3.479,2.38,25.831,41.572
aX,aY,aZ,gX,gY,gZ,Roll,Pitch
0.637,0.47,-0.588,-0.183,-4.028,0.61,27.514,41.214
0.66,0.485,-0.606,7.385,2.869,-1.709,27.18,40.792
0.623,0.492,-0.633,-11.719,11.719,2.075,28.183,40.077
0.612,0.431,-0.598,2.502,1.526,-1.77,28.183,39.535
0.605,0.466,-0.609,6.897,8.301,1.099,28.189,39.05
0.569,0.427,-0.651,-5.005,13.916,0.977,27.656,38.005
0.592,0.436,-0.574,14.465,-0.793,0.427,27.358,38.378
0.569,0.459,-0.686,25.879,8.057,-0.977,27.492,37.075
0.529,0.551,-0.734,13.306,17.029,-0.061,28.291,34.883
0.46,0.623,-0.842,19.531,44.495,6.042,30.172,31.488
0.347,0.668,-0.912,41.931,80.994,15.015,31.858,25.92
0.228,0.752,-0.893,51.147,112.732,33.264,34.841,20.16
0.009,0.777,-0.678,51.331,125.854,41.321,38.974,13.472
-0.21,0.729,-0.406,38.33,113.953,41.016,45.118,5.201
-0.382,0.763,-0.202,18.616,98.206,36.316,53.839,-5.449
-0.486,0.72,-0.034,20.02,102.417,43.274,60.391,-18.127
-0.504,0.632,0.241,14.526,101.624,49.194,60.143,-28.858
-0.489,0.551,0.518,0.854,87.402,37.109,54.053,-34.412
-0.451,0.453,0.697,-10.681,54.626,41.992,44.515,-35.038
-0.5,0.376,0.777,-0.305,25.757,19.958,34.209,-32.894
-0.517,0.399,0.699,-4.883,3.357,2.197,28.145,-31.244
-0.534,0.367,0.682,-4.639,1.16,-1.587,24.588,-31.48
-0.54,0.394,0.67,0.061,0.732,-1.77,23.598,-33.017
-0.58,0.484,0.721,-2.014,-0.732,-0.854,25.033,-33.961
-0.584,0.506,0.695,-2.808,-2.563,-0.793,26.193,-34.345
-0.528,0.468,0.71,0.549,-7.324,-2.136,27.362,-33.644
-0.451,0.404,0.756,1.892,-40.161,-16.479,27.392,-31.991
-0.434,0.466,0.546,-15.259,-86.975,-38.269,28.715,-31.382
-0.529,0.683,0.274,4.944,-112.671,-40.161,33.952,-32.493
-0.427,0.621,-0.072,-3.174,-117.065,-46.936,42.431,-34.864
-0.405,0.835,-0.29,2.38,-113.77,-41.687,54.578,-34.168
-0.329,0.802,-0.415,-14.771,-102.112,-37.537,59.05,-29.531
-0.034,0.844,-0.525,-18.494,-91.858,-32.715,60.33,-19.557
0.068,0.848,-0.583,-27.222,-81.97,-27.344,59.727,-10.472
0.212,0.83,-0.651,-46.082,-76.233,-24.902,56.799,-1.209
0.368,0.731,-0.683,-20.63,-77.393,-29.053,52.254,8.583
0.562,0.661,-0.695,-23.682,-51.147,-14.954,46.837,16.716
0.587,0.583,-0.602,-22.461,-32.349,-3.784,41.695,24.221
0.639,0.558,-0.586,-17.639,-20.874,-2.319,37.085,30.885
0.673,0.525,-0.591,-5.066,-1.16,2.319,33.705,35.933
0.698,0.492,-0.547,7.019,-0.854,-0.854,31.768,39.297
0.682,0.444,-0.554,-6.531,-1.892,1.77,29.799,41.48
0.686,0.464,-0.541,2.869,2.869,2.075,28.582,42.881
0.669,0.455,-0.536,-0.916,-3.235,4.761,27.953,43.7
0.677,0.464,-0.545,-3.113,-2.869,2.38,27.717,43.672
0.682,0.475,-0.519,0.793,-3.845,0.244,28.264,43.745
aX,aY,aZ,gX,gY,gZ,Roll,Pitch
0.633,0.521,-0.534,6.531,-3.906,0.916,29.324,42.856
0.661,0.495,-0.56,2.258,3.479,-0.122,29.763,42.337
0.631,0.638,-0.639,6.47,4.7,-1.282,31.714,40.077
0.653,0.486,-0.561,1.709,1.282,-0.427,31.8,39.41
0.668,0.47,-0.572,15.686,1.282,-3.418,30.798,39.851
0.674,0.601,-0.533,3.052,6.104,4.028,32.123,39.523
0.58,0.483,-0.666,21.362,24.963,1.343,30.414,39.737
0.614,0.646,-0.634,28.687,31.494,2.625,32.177,37.896
0.451,0.54,-0.854,29.236,61.096,16.113,32.591,33.406
0.36,0.694,-0.762,50.11,75.195,16.602,33.718,28.118
0.216,0.735,-0.752,40.588,92.041,24.597,37.382,22.408
0.062,0.809,-0.605,40.71,98.877,26.855,41.257,14.989
-0.148,0.818,-0.458,29.602,91.125,21.24,49.351,7
-0.27,0.858,-0.34,20.813,87.83,31.677,56.149,-2.057
-0.387,0.796,-0.161,19.714,88.623,40.71,62.169,-11.551
-0.476,0.763,0.055,17.883,82.397,39.246,64.141,-20.873
-0.527,0.636,0.236,12.817,71.289,35.095,61.266,-28.485
-0.556,0.522,0.379,14.893,64.087,30.64,53.477,-35.156
-0.557,0.523,0.485,5.92,57.922,32.837,45.392,-38.052
-0.505,0.402,0.725,-14.282,39.917,29.541,36.494,-37.756
-0.601,0.438,0.697,-2.502,6.775,5.737,30.625,-36.816
-0.609,0.465,0.651,14.893,1.465,0.122,28.121,-35.84
-0.604,0.484,0.642,0.977,-0.305,0.916,26.611,-35.497
-0.596,0.461,0.648,0.122,-0.427,0.427,27.343,-36.809
-0.586,0.413,0.607,0,-0.977,-1.221,27.528,-37.401
-0.592,0.472,0.677,2.686,-6.714,-3.052,27.576,-36.983
-0.501,0.467,0.722,-3.784,-43.64,-23.376,27.417,-35.291
-0.507,0.573,0.514,-7.141,-75.684,-40.649,29.993,-34.583
-0.505,0.715,0.301,-23.987,-101.013,-40.588,36.094,-33.841
-0.471,0.743,0.001,-5.31,-122.437,-45.898,44.847,-34.086
-0.27,0.856,-0.256,-7.446,-125.977,-42.908,57.469,-30.819
-0.136,0.798,-0.588,-16.907,-114.746,-41.992,64.486,-23.644
0.048,0.77,-0.683,-19.775,-105.286,-39.673,61.263,-13.277
0.318,0.802,-0.669,-13.672,-102.051,-42.847,55.755,-0.595
0.496,0.762,-0.657,-23.987,-83.252,-38.025,49.278,10.109
0.548,0.687,-0.628,-25.818,-57.678,-24.353,45.293,19.361
0.648,0.612,-0.61,-11.353,-30.701,-7.324,41.304,27.597
0.644,0.67,-0.638,-33.386,-1.343,10.742,38.393,32.084
0.659,0.549,-0.471,0.305,0.732,-0.366,36.283,35.978
0.66,0.573,-0.503,9.827,1.709,-2.441,35.032,38.568
0.693,0.528,-0.499,10.193,2.991,0.732,34.356,40.253
0.652,0.557,-0.497,4.089,0.793,0.732,33.67,41.995
0.654,0.531,-0.495,-2.869,-2.075,1.221,33.368,41.916
0.664,0.54,-0.485,1.587,0.488,0.793,33.028,42.317
0.656,0.529,-0.494,4.639,-2.747,1.404,33.299,41.939
aX,aY,aZ,gX,gY,gZ,Roll,Pitch
0.669,0.536,-0.522,3.967,-5.066,0.427,32.803,42.115
0.674,0.556,-0.502,5.676,1.526,1.099,32.952,42.111
0.69,0.57,-0.51,-7.263,5.615,2.869,33.034,42.015
0.641,0.523,-0.513,-2.563,0.305,0.244,32.973,41.779
0.684,0.511,-0.539,21.667,8.85,-2.319,32.504,41.999
0.601,0.557,-0.608,-3.113,17.456,0.549,32.449,40.506
0.617,0.555,-0.639,-6.104,30.09,2.93,32.04,38.966
0.496,0.742,-0.862,20.752,55.603,19.287,33.498,34.04
0.379,0.667,-0.799,44.861,84.778,29.846,35.128,28.548
0.208,0.704,-0.691,44.983,88.074,25.208,37.791,22.995
0.045,0.784,-0.653,31.372,87.036,28.076,42.073,15.127
-0.14,0.873,-0.59,19.348,101.257,36.865,47.48,6.886
-0.255,0.824,-0.341,31.677,106.079,44.006,54.415,-2.068
-0.373,0.756,-0.068,16.907,85.571,40.527,60.892,-11.243
-0.503,0.749,0.088,18.921,82.581,35.889,63.982,-20.888
-0.553,0.625,0.24,28.992,79.346,43.518,60.285,-29.678
-0.519,0.516,0.501,22.888,73.181,41.382,51.678,-35.282
-0.501,0.443,0.681,-8.362,54.932,36.377,42.267,-36.772
-0.536,0.505,0.772,-10.01,14.404,8.179,34.466,-34.857
-0.583,0.509,0.67,-2.563,3.052,0,30.234,-33.092
-0.556,0.483,0.722,-0.549,6.165,2.38,28.436,-32.299
-0.562,0.491,0.684,-2.869,3.54,1.648,28.76,-32.792
-0.538,0.458,0.703,-6.042,-1.587,0.732,28.548,-33.452
-0.539,0.455,0.665,-0.61,-0.793,2.014,28.078,-33.201
-0.516,0.424,0.696,-2.136,-3.357,-1.587,27.627,-33.143
-0.467,0.443,0.789,-2.991,-28.992,-15.076,26.821,-31.485
-0.387,0.464,0.623,-2.93,-76.416,-43.274,27.932,-30.051
-0.421,0.589,0.317,-20.142,-111.145,-52.124,32.482,-30.061
-0.486,0.758,0.038,-18.372,-102.234,-53.162,42.097,-31.575
-0.431,0.847,-0.104,-17.395,-101.196,-41.87,53.96,-31.651
-0.231,0.854,-0.321,-15.198,-99.426,-43.213,62.737,-27.234
-0.078,0.837,-0.448,-25.452,-95.154,-33.63,65.767,-19.83
0.107,0.882,-0.646,-26.123,-80.505,-31.25,64.297,-9.599
0.163,0.87,-0.633,-35.889,-65.552,-20.996,59.231,-0.553
0.345,0.722,-0.646,-29.419,-52.856,-21.24,53.665,7.518
0.473,0.702,-0.589,-31.372,-54.81,-26.428,49.21,15.032
0.582,0.614,-0.667,-31.677,-49.805,-23.071,44.311,22.051
0.534,0.567,-0.825,-39.429,-16.113,-12.207,37.924,27.144
0.689,0.476,-0.49,-2.625,-6.226,-2.258,34.483,33.132
0.681,0.508,-0.572,-5.188,-5.188,-1.648,31.273,36.597
0.695,0.471,-0.511,-0.549,-2.258,1.099,29.759,39.645
0.69,0.497,-0.474,6.775,-2.136,1.404,29.626,44.257
0.694,0.5,-0.517,-3.662,2.014,3.906,29.784,43.947
0.69,0.53,-0.523,-1.465,2.197,-3.967,30.214,44.232
0.699,0.452,-0.502,9.155,0.427,0.977,29.997,44.466
0.698,0.501,-0.522,-2.502,-4.822,2.136,29.804,44.161
aX,aY,aZ,gX,gY,gZ,Roll,Pitch
0.693,0.503,-0.497,2.502,-0.305,-0.061,29.933,44.272
0.686,0.52,-0.5,-0.61,3.357,-0.244,29.932,44.465
0.637,0.54,-0.572,-0.183,3.174,0.732,31.067,42.716
0.682,0.435,-0.553,-4.456,-0.122,2.014,30.193,42.782
0.65,0.48,-0.56,6.287,4.15,-1.404,29.867,42.027
0.639,0.467,-0.632,-3.723,22.156,4.089,28.843,40.904
0.607,0.518,-0.519,17.334,7.446,6.409,28.972,41.1
0.564,0.592,-0.702,15.076,29.541,10.193,30.833,37.811
0.387,0.716,-0.793,21.851,49.5,14.465,33.687,32.105
0.326,0.7,-0.816,37.598,80.688,23.193,36.612,26.409
0.205,0.702,-0.721,35.706,88.379,20.691,38.758,20.021
0.05,0.766,-0.662,34.607,91.858,23.804,42.518,13.107
-0.131,0.832,-0.522,27.344,98.45,28.015,47.399,6.341
-0.254,0.792,-0.299,19.897,90.698,30.334,54.463,-1.97
-0.376,0.823,-0.153,4.272,81.848,32.837,60.959,-11.161
-0.499,0.773,-0.024,-4.395,78.308,39.734,63.467,-20.498
-0.55,0.704,0.151,19.653,75.134,33.142,61.055,-28.371
-0.594,0.633,0.344,21.545,61.279,29.358,55.134,-34.379
-0.58,0.48,0.427,1.587,53.04,27.283,47.217,-39.023
-0.513,0.502,0.529,9.033,49.255,30.884,41.017,-39.254
-0.517,0.35,0.681,0.061,25.879,16.418,33.554,-38.293
-0.578,0.477,0.634,0.488,1.038,2.441,29.849,-37
-0.615,0.468,0.643,0.61,1.892,2.625,28.317,-35.933
-0.604,0.469,0.638,-1.282,-3.479,-1.526,26.896,-36.41
-0.609,0.477,0.617,-3.906,-0.183,0.061,28.425,-37.295
-0.578,0.429,0.602,-0.122,-1.465,-2.441,27.979,-37.768
-0.584,0.46,0.646,10.071,-8.606,-5.981,28.007,-37.435
-0.605,0.55,0.65,10.803,-14.221,-11.414,28.984,-36.932
-0.48,0.455,0.643,8.118,-44.189,-24.719,29.185,-35.347
-0.516,0.602,0.429,-3.967,-79.895,-38.818,32.678,-34.817
-0.543,0.627,0.16,-1.404,-88.806,-40.405,38.058,-36.285
-0.482,0.743,-0.046,2.319,-91.431,-39.307,46.002,-36.811
-0.37,0.783,-0.165,-1.953,-89.05,-37.231,54.739,-34.495
-0.244,0.786,-0.369,-17.334,-92.346,-36.926,60.076,-28.896
-0.081,0.874,-0.433,-18.982,-91.248,-32.898,64.024,-19.382
0.007,0.879,-0.572,-21.912,-79.712,-27.832,63.105,-10.626
0.208,0.823,-0.598,-26.794,-74.829,-18.311,59.578,-1.602
0.311,0.758,-0.676,-23.926,-70.007,-24.719,55.16,6.292
0.459,0.662,-0.649,-9.216,-49.438,-21.545,49.348,13.845
0.484,0.704,-0.642,-19.226,-42.053,-16.663,44.96,20.516
0.6,0.552,-0.632,-16.418,-19.348,-11.169,39.976,26.422
0.644,0.46,-0.498,-5.798,-2.625,0.488,36.092,32.798
0.663,0.545,-0.562,6.897,-2.075,0.732,34.083,36.344
0.62,0.534,-0.533,0.061,-1.404,0.732,31.838,39.617
0.641,0.473,-0.507,-1.221,-0.183,1.77,31.24,41.451
0.773,0.466,-0.634,10.742,2.625,-0.122,29.942,41.85
0.644,0.551,-0.544,-0.61,-0.916,-0.061,30.211,41.729
0.637,0.535,-0.544,2.136,1.099,2.014,30.073,41.819
0.644,0.524,-0.535,2.625,-2.38,0.549,30.548,41.334
0.656,0.544,-0.51,1.038,-3.723,0.61,32.754,40.398
aX,aY,aZ,gX,gY,gZ,Roll,Pitch