aX,aY,aZ,gX,gY,gZ,Roll,Pitch
0.415,0.868,0.36,-7.874,9.277,-2.93,57.648,23.826
0.425,0.844,0.294,0.793,2.136,-1.404,58.124,24.622
0.421,0.814,0.275,9.766,-4.639,8.911,58.199,25.107
0.279,0.894,0.11,1.038,1.831,22.339,61.486,23.318
0.475,0.578,0.328,53.406,33.936,-2.869,58.872,25.959
0.438,0.468,0.346,-19.287,-3.967,-5.493,54.976,28.688
0.419,0.972,0.428,-6.165,-44.678,0.488,55.304,27.066
0.364,0.933,0.416,22.766,-68.97,-1.282,52.362,27.077
0.172,0.792,0.26,30.518,-51.392,-5.31,57.577,21.807
0.122,0.766,0.438,7.935,-29.236,-6.531,61.496,15.849
0.092,0.819,0.523,5.554,-22.217,-6.226,61.449,11.481
0.113,0.838,0.536,2.747,-16.968,-3.296,60.39,7.747
0.076,0.8,0.543,5.737,-15.747,-3.906,57.163,6.032
0.06,0.822,0.587,8.24,-15.808,-0.427,55.942,4.951
0.048,0.808,0.578,6.226,-17.273,-2.075,55.286,4.293
0.03,0.735,0.644,16.479,-23.499,-4.456,53.263,3.118
0.008,0.793,0.632,4.15,-28.931,-2.686,52.242,2.106
-0.098,0.72,0.629,10.376,-34.119,-4.7,50.906,-0.174
-0.14,0.761,0.632,11.719,-36.987,-9.155,49.776,-2.906
-0.183,0.738,0.659,14.099,-35.095,-11.536,49.363,-5.969
-0.22,0.696,0.666,10.315,-42.664,-8.179,47.57,-9.348
-0.28,0.647,0.599,22.644,-38.147,-11.292,46.627,-12.152
-0.313,0.633,0.597,23.743,-20.874,-8.362,45.033,-15.065
-0.355,0.572,0.645,12.451,-33.447,-11.414,42.647,-18.11
-0.467,0.629,0.569,3.54,-21.24,-10.62,41.589,-22.254
-0.49,0.672,0.543,-8.606,-20.63,2.136,41.22,-25.298
-0.455,0.64,0.516,6.897,-15.076,-4.272,41.116,-27.537
-0.497,0.707,0.512,-3.052,-19.958,-0.366,42.713,-29.275
-0.588,0.678,0.466,14.099,-33.936,0.427,43.171,-30.986
-0.604,0.673,0.379,0.122,-13.672,7.141,43.46,-33.141
-0.612,0.643,0.38,-5.127,-14.221,3.54,43.128,-35.632
-0.651,0.684,0.326,-3.357,-13.245,-0.732,42.682,-38.43
-0.67,0.716,0.271,-0.183,-4.883,2.258,43.339,-39.897
-0.683,0.665,0.212,-0.488,5.005,1.221,43.285,-41.505
-0.657,0.663,0.254,-3.723,13.855,-3.479,43.579,-42.27
-0.652,0.745,0.282,-11.475,18.799,1.587,44.367,-41.88
-0.641,0.675,0.333,-10.803,25.879,6.653,43.988,-41.721
-0.575,0.707,0.39,-6.714,20.447,2.075,44.68,-39.509
-0.6,0.695,0.336,-6.531,27.771,4.7,45.139,-38.299
-0.586,0.728,0.386,-13.672,46.082,28.015,45.021,-37.274
-0.517,0.68,0.444,-17.883,45.776,20.508,45.534,-35.343
-0.481,0.617,0.493,-24.902,46.082,9.338,44.77,-34.436
-0.421,0.711,0.499,-7.08,46.814,6.287,45.286,-31.38
-0.366,0.764,0.514,-22.827,55.237,0.977,46.363,-27.772
-0.256,0.777,0.495,-23.804,60.852,-0.366,48.76,-23.54
-0.168,0.84,0.581,-40.894,60.425,-2.869,52.014,-17.975
-0.03,0.865,0.499,-14.771,62.378,-4.578,55.347,-11.989
0.097,0.894,0.508,9.033,66.101,-3.906,57.96,-5.147
0.164,0.852,0.457,-12.39,38.452,4.028,59.342,0.901
0.241,0.86,0.394,-11.047,50.964,-10.01,61.088,6.83
0.247,0.885,0.383,-4.639,36.438,-7.385,61.49,10.849
0.36,0.843,0.335,13.611,19.592,-1.709,61.51,14.97
0.347,0.989,0.418,6.348,9.521,-3.967,61.511,17.06
0.319,0.834,0.272,1.709,3.174,-0.977,61.879,18.42
0.373,0.895,0.331,12.939,9.338,3.113,61.321,20.161
0.331,0.811,0.365,-30.884,6.348,-5.981,61.092,19.866
0.373,0.788,0.358,19.409,2.991,2.808,59.954,21.293
aX,aY,aZ,gX,gY,gZ,Roll,Pitch
0.374,0.809,0.411,18.555,-3.784,4.15,58.026,21.877
0.358,0.838,0.369,-31.799,9.583,-2.747,57.362,21.866
0.361,0.852,0.351,-3.967,1.465,1.221,57.553,22.102
0.31,0.863,0.338,8.606,-4.822,12.695,58.852,20.925
0.32,0.839,0.419,-27.771,6.287,-2.441,59.465,20.039
0.347,0.766,0.373,13.977,8.484,1.282,58.98,20.214
0.376,0.765,0.315,-48.767,-7.996,-8.545,58.51,20.927
0.383,0.921,0.397,1.221,-28.564,2.075,57.793,21.514
0.285,0.881,0.474,4.272,-62.561,0.549,57.907,20.716
0.172,0.882,0.383,15.137,-51.086,-4.395,60.075,17.798
0.137,0.813,0.53,21.973,-44.25,-6.714,59.815,13.975
0.068,0.744,0.55,14.099,-37.292,-11.597,58.336,9.778
-0.008,0.809,0.632,6.226,-35.156,-12.695,56.769,5.459
-0.039,0.707,0.639,17.578,-42.297,-6.287,52.501,2.336
-0.081,0.697,0.697,15.137,-43.518,-9.155,49.572,-0.884
-0.226,0.663,0.738,10.132,-53.528,-4.883,46.506,-5.123
-0.313,0.643,0.645,36.194,-42.114,-8.972,44.094,-9.752
-0.353,0.634,0.647,22.339,-36.133,-9.277,42.331,-14.388
-0.412,0.554,0.688,10.559,-30.701,-8.85,39.595,-19.478
-0.421,0.553,0.582,27.832,-32.898,-18.799,38.762,-23.188
-0.58,0.469,0.644,19.226,-22.156,-14.771,35.38,-27.561
-0.554,0.491,0.616,-0.061,-24.78,-6.531,32.813,-31.049
-0.624,0.502,0.548,-0.854,-32.654,-10.559,31.919,-34.872
-0.668,0.558,0.452,11.353,-8.301,-3.967,31.348,-38.672
-0.71,0.56,0.478,-7.019,-6.287,3.235,32.568,-40.69
-0.639,0.528,0.395,0.366,4.211,6.165,33.559,-42.831
-0.665,0.524,0.411,-17.456,22.156,5.188,34.183,-43.988
-0.665,0.566,0.458,-21.851,28.809,17.7,34.274,-43.857
-0.623,0.481,0.497,-14.709,38.574,28.503,33.826,-43.408
-0.606,0.459,0.642,-16.541,41.626,13.123,31.985,-41.859
-0.494,0.551,0.624,-17.883,47.485,14.587,32.261,-38.271
-0.426,0.618,0.641,-22.095,51.208,17.883,33.207,-33.9
-0.332,0.674,0.637,-24.231,55.298,18.433,36.166,-28.442
-0.278,0.696,0.634,-27.527,42.542,13.428,40.618,-23.086
-0.234,0.758,0.665,-17.273,56.091,12.634,43.714,-18.622
-0.069,0.7,0.755,-3.235,60.242,15.503,44.869,-13.145
0.029,0.753,0.681,-1.709,44.189,10.254,46.182,-7.853
0.056,0.739,0.626,-13.367,31.555,3.784,47.148,-3.098
0.149,0.777,0.651,-9.033,43.945,-7.446,47.525,2.353
0.207,0.793,0.534,-2.93,30.029,3.357,50.421,6.377
0.24,0.746,0.607,2.563,16.602,3.601,50.658,9.496
0.254,0.697,0.582,13.245,2.502,0.244,50.088,12.494
0.245,0.801,0.429,6.714,3.357,-11.414,52.268,14.252
0.327,0.864,0.513,11.414,12.39,3.479,52.533,15.778
0.278,0.745,0.554,-3.967,4.517,-5.737,52.866,16.441
0.276,0.789,0.49,7.385,7.202,3.296,54.486,16.635
aX,aY,aZ,gX,gY,gZ,Roll,Pitch
0.238,0.668,0.66,16.479,-0.854,0.61,50.989,16.465
0.313,0.724,0.535,-18.188,4.578,8.545,49.519,16.69
0.26,0.813,0.548,0.305,0.61,-1.282,50.314,16.23
0.248,0.724,0.526,-2.075,-6.47,4.7,49.463,15.961
0.261,0.786,0.508,-0.427,9.094,4.822,52.037,16.267
0.283,0.772,0.46,0.793,-19.775,-1.648,53.421,15.854
0.252,0.8,0.616,-3.845,-39.795,-8.789,52.636,15.623
0.197,0.767,0.602,0.793,-39.673,-17.029,52.483,14.591
0.086,0.793,0.632,16.968,-50.232,-14.954,51.969,11.868
0.018,0.723,0.608,20.874,-32.898,-10.132,50.75,7.982
-0.025,0.666,0.67,8.484,-23.621,-9.521,49.406,4.081
-0.055,0.654,0.716,3.906,-21.606,-11.658,47.19,0.367
-0.045,0.664,0.741,14.221,-22.522,-13.55,44.674,-1.576
-0.088,0.622,0.763,19.287,-23.56,-14.648,41.961,-3.128
-0.134,0.599,0.804,14.771,-27.039,-14.221,39.863,-4.662
-0.16,0.613,0.805,15.442,-28.564,-13.672,38.499,-6.103
-0.231,0.517,0.775,23.132,-32.654,-10.803,36.263,-8.867
-0.303,0.526,0.8,6.775,-32.41,-13.367,34.445,-11.977
-0.384,0.453,0.704,-1.282,-23.437,-10.132,32.85,-16.086
-0.434,0.494,0.72,10.925,-25.085,-5.188,31.16,-20.582
-0.453,0.469,0.688,-7.019,-27.71,-12.268,30.401,-24.204
-0.572,0.529,0.599,-0.732,-27.527,-7.874,30.684,-28.901
-0.583,0.558,0.588,7.202,-21.24,-3.723,31.843,-31.684
-0.618,0.501,0.494,6.409,-17.029,-4.15,32.347,-35.339
-0.685,0.525,0.516,0.916,-11.536,-0.61,32.67,-38.879
-0.638,0.552,0.505,5.92,-12.085,-0.793,33.036,-40.096
-0.724,0.576,0.412,-3.601,-6.348,0.854,33.224,-42.672
-0.715,0.53,0.406,-0.793,3.052,2.319,33.341,-44.061
-0.684,0.567,0.406,-2.808,6.287,2.93,34.334,-44.411
-0.677,0.54,0.401,-4.883,18.188,4.15,34.356,-45.559
-0.662,0.559,0.447,-12.512,25.146,12.085,34.452,-44.84
-0.619,0.583,0.509,-13.123,34.668,23.499,35.306,-42.747
-0.641,0.423,0.561,-5.554,38.879,23.315,33.095,-42.378
-0.544,0.467,0.651,-20.752,48.95,19.104,31.761,-39.682
-0.442,0.546,0.708,-17.944,51.514,27.222,31.405,-35.416
-0.45,0.544,0.671,-33.386,51.392,32.41,30.81,-32.498
-0.299,0.543,0.707,-28.442,57.373,15.381,32.948,-26.706
-0.207,0.646,0.676,-18.25,47.058,8.423,36.36,-21.334
-0.077,0.756,0.747,-24.902,41.87,-0.793,39.809,-15.415
-0.04,0.766,0.695,-6.775,32.41,8.179,43.132,-9.035
-0.012,0.73,0.628,-4.761,24.536,9.155,46.319,-4.799
0.031,0.754,0.61,-7.263,34.119,0,48.245,-1.389
0.108,0.775,0.588,-1.465,30.334,-0.061,50.157,1.275
0.186,0.762,0.496,-10.193,34.607,-2.014,52.186,4.706
0.218,0.813,0.56,4.944,31.128,2.625,53.23,8.063
0.258,0.781,0.568,5.371,18.25,0.305,53.195,11.363
0.229,0.794,0.365,6.714,6.531,11.658,55.322,13.447
0.295,0.815,0.54,26.978,19.47,-4.089,54.726,14.762
0.283,0.676,0.558,11.902,-5.432,2.808,53.204,16.139
0.267,0.847,0.507,-3.357,1.465,2.319,54.382,16.184
aX,aY,aZ,gX,gY,gZ,Roll,Pitch
0.258,0.728,0.56,7.446,-0.244,0.977,51.607,16.381
0.246,0.747,0.526,9.338,-3.845,7.141,51.382,15.944
0.245,0.865,0.533,-13.367,-8.545,3.174,53.532,14.864
0.189,0.792,0.52,4.15,-12.024,4.456,53.299,13.902
0.208,0.79,0.491,9.338,7.629,1.831,54.809,13.138
0.173,0.828,0.541,-5.92,-18.494,-7.263,55.644,11.864
0.188,0.857,0.443,-14.282,-15.625,-16.907,56.846,11.202
0.236,0.842,0.542,-10.681,-28.442,-6.714,56.78,11.717
0.167,0.824,0.553,4.333,-42.603,-5.554,56.53,10.969
0.114,0.803,0.583,21.606,-41.992,-11.292,56.089,10.132
0.055,0.811,0.605,29.236,-45.41,-21.484,54.325,8.141
0.046,0.692,0.685,21.606,-39.734,-20.874,51.865,5.5
-0.029,0.675,0.702,25.635,-37.964,-17.273,49.092,2.687
-0.074,0.652,0.732,6.897,-33.447,-16.235,46.082,-0.045
-0.162,0.595,0.679,8.301,-28.87,-19.714,42.955,-3.277
-0.196,0.606,0.761,13.55,-31.006,-10.925,40.966,-6.872
-0.23,0.583,0.769,14.954,-32.043,-9.949,38.941,-9.833
-0.307,0.506,0.734,31.067,-38.269,-7.202,36.676,-13.502
-0.401,0.521,0.751,2.93,-30.518,-12.817,34.529,-16.868
-0.458,0.512,0.693,19.287,-29.785,-7.874,33.061,-21.035
-0.54,0.43,0.655,17.822,-30.029,-6.104,30.77,-26.314
-0.573,0.417,0.684,12.329,-24.536,-13.367,28.862,-30.419
-0.622,0.472,0.627,5.859,-24.109,-6.531,27.982,-34.192
-0.687,0.444,0.546,5.432,-25.208,-0.793,26.813,-38.278
-0.696,0.42,0.471,0.916,-14.221,-0.671,26.779,-41.496
-0.772,0.37,0.451,2.502,-1.709,-2.319,26.124,-45.787
-0.778,0.484,0.477,1.038,3.601,1.465,26.022,-48.499
-0.727,0.415,0.408,1.648,17.151,14.648,25.883,-50.249
-0.677,0.402,0.476,-18.25,23.865,11.719,25.737,-50.168
-0.654,0.437,0.527,-25.269,30.457,13.245,27.019,-47.862
-0.58,0.506,0.577,-30.396,33.081,20.752,28.037,-44.819
-0.54,0.594,0.614,-24.719,42.48,14.587,30.517,-39.929
-0.485,0.616,0.575,-34.79,45.837,5.676,33.779,-35.671
-0.395,0.67,0.661,-30.64,46.875,4.15,37.188,-30.423
-0.318,0.706,0.638,-29.846,42.908,8.423,40.437,-25.817
-0.245,0.73,0.586,-21.667,52.734,11.414,43.675,-21.443
-0.145,0.764,0.658,-15.869,58.716,8.24,46.009,-16.026
-0.037,0.773,0.608,-4.15,43.579,10.193,48.851,-10.867
-0.008,0.817,0.606,-4.15,43.274,4.639,51.024,-6.294
0.084,0.793,0.569,4.578,47.119,7.08,52.176,-1.526
0.158,0.809,0.642,-5.005,34.973,1.404,52.681,2.816
0.174,0.769,0.579,5.066,16.479,-1.282,52.675,5.848
0.186,0.692,0.536,-2.319,3.296,-1.892,51.887,8.897
0.207,0.833,0.552,1.953,21.606,-8.118,52.042,10.615
0.308,0.747,0.56,8.423,7.69,2.625,51.8,13.066
0.24,0.769,0.535,-7.019,0.122,-2.625,51.978,14.116
aX,aY,aZ,gX,gY,gZ,Roll,Pitch
0.282,0.76,0.555,12.695,4.028,0.916,51.924,15.242
0.322,0.854,0.561,-9.827,-6.714,0.183,51.445,16.739
0.204,0.852,0.457,-14.343,-9.277,12.207,53.934,15.187
0.195,0.838,0.431,34.973,27.527,31.433,55.836,14.548
0.466,0.305,1.037,50.293,24.292,1.892,45.961,17.417
0.265,0.818,0.632,-24.841,-19.47,-7.446,45.174,16.552
0.217,0.835,0.595,-10.864,-53.711,-3.662,43.687,16.4
0.126,0.818,0.523,23.254,-64.758,-6.042,42.903,15.276
0.006,0.746,0.531,14.343,-59.387,-6.775,53.704,8.853
-0.1,0.743,0.677,24.292,-48.096,-15.442,53.329,3.644
-0.196,0.703,0.671,32.471,-57.678,-24.292,51.337,-2.433
-0.268,0.706,0.67,21.545,-56.946,-24.902,47.998,-8.22
-0.372,0.577,0.609,26.611,-46.265,-20.813,44.374,-13.873
-0.363,0.629,0.622,20.02,-39.429,-18.921,42.652,-18.089
-0.465,0.637,0.614,11.475,-32.898,-10.742,41.192,-22.28
-0.503,0.604,0.608,16.235,-30.09,-6.47,39.323,-26.166
-0.517,0.54,0.484,9.033,-31.677,-12.268,39.035,-28.87
-0.562,0.674,0.459,1.77,-21.057,-14.771,39.494,-32.016
-0.595,0.72,0.438,-2.808,-20.325,2.075,40.722,-34.022
-0.66,0.563,0.332,-0.977,-13.123,1.038,40.784,-37.615
-0.664,0.682,0.418,1.526,-1.465,-3.723,41.548,-38.563
-0.649,0.635,0.393,1.16,1.16,0,40.762,-40.158
-0.667,0.607,0.333,-4.639,7.019,-0.671,39.425,-42.387
-0.638,0.639,0.334,-8.24,19.287,8.24,40.432,-41.511
-0.572,0.573,0.383,-8.179,39.795,23.254,40.149,-41.578
-0.564,0.546,0.49,-15.686,50.476,25.513,39.34,-40.847
-0.527,0.536,0.601,-24.78,57.678,22.888,38.102,-38.225
-0.437,0.708,0.574,-30.334,58.35,17.761,38.866,-33.877
-0.322,0.71,0.628,-23.987,74.036,16.968,40.316,-28.607
-0.23,0.741,0.639,-25.879,70.923,23.254,43.153,-22.624
-0.116,0.731,0.616,-13.733,66.345,20.874,47,-16.243
-0.081,0.787,0.61,-18.127,58.533,7.751,48.757,-10.941
0,0.824,0.635,-25.635,36.499,1.282,50.564,-6.139
0.062,0.818,0.511,-6.226,38.513,0.793,53.073,-1.962
0.151,0.915,0.549,4.456,20.691,-4.15,55.395,1.864
0.083,0.808,0.491,3.174,-0.916,0.366,56.767,4.228
0.091,0.812,0.424,-9.766,2.075,-3.174,59.036,5.687
0.109,0.917,0.525,10.559,29.236,-3.357,59.475,6.225
0.217,0.692,0.51,25.574,10.681,3.418,58.058,7.549
0.191,0.848,0.53,-2.808,-5.859,2.625,57.526,9.03
aX,aY,aZ,gX,gY,gZ,Roll,Pitch
0.159,0.812,0.687,14.648,-0.488,-0.061,54.27,9.667
0.184,0.887,0.495,-20.691,-0.977,0.366,54.093,10.825
0.167,0.887,0.49,-16.968,-5.31,1.892,56.062,9.754
0.156,0.786,0.385,9.827,5.31,8.545,57.335,9.567
0.278,0.736,0.81,44.678,-7.446,1.953,54.897,11.227
0.22,0.894,0.54,-31.677,-20.264,-3.479,54.314,11.637
0.166,0.818,0.477,7.812,-53.223,-2.747,53.887,11.808
0.063,0.914,0.516,10.498,-71.045,-12.512,53.873,10.058
-0.001,0.887,0.465,16.052,-62.134,-6.287,59.755,6.315
-0.139,0.805,0.501,36.804,-47.729,-1.709,60.192,1.287
-0.137,0.749,0.568,22.4,-33.813,-20.874,58.433,-3.116
-0.172,0.742,0.619,23.132,-30.029,-27.771,55.355,-6.678
-0.255,0.73,0.646,20.264,-27.771,-3.296,51.151,-10.436
-0.256,0.679,0.632,13.245,-20.752,-2.075,48.145,-12.178
-0.295,0.671,0.673,9.46,-16.968,-3.967,45.742,-14.395
-0.301,0.593,0.672,13.367,-18.188,-12.329,43.192,-16.487
-0.308,0.662,0.635,-0.122,-18.677,-18.616,42.339,-17.475
-0.359,0.655,0.639,10.437,-15.076,-13.611,41.591,-18.968
-0.331,0.701,0.671,11.597,-14.893,-4.761,41.787,-19.368
-0.359,0.617,0.655,7.812,-15.869,-7.996,41.941,-20.133
-0.379,0.591,0.623,11.963,-21.484,-5.432,40.95,-21.392
-0.445,0.649,0.611,7.629,-34.424,-1.343,40.706,-22.687
-0.526,0.651,0.529,4.822,-33.447,2.075,40.267,-26.117
-0.536,0.66,0.501,-7.385,-25.757,-3.54,40.887,-28.938
-0.601,0.665,0.367,-10.742,-34.485,-1.16,42.039,-32.53
-0.633,0.654,0.264,31.372,-13,-2.197,42.861,-36.436
-0.664,0.631,0.349,-0.916,-22.705,4.028,42.493,-39.049
-0.68,0.651,0.273,1.465,-21.912,3.845,42.226,-41.764
-0.744,0.667,0.152,8.24,2.808,-1.465,41.79,-44.166
-0.704,0.652,0.196,-2.197,16.052,7.324,41.346,-45.175
-0.665,0.62,0.302,-1.465,36.621,10.62,41.358,-45.457
-0.593,0.648,0.338,-15.808,48.95,7.507,41.92,-44.343
-0.6,0.635,0.471,-31.86,68.97,6.958,41.609,-41.759
-0.472,0.728,0.591,-17.944,69.763,19.348,42.351,-36.642
-0.355,0.654,0.552,-26.306,74.829,23.193,43.491,-31.454
-0.203,0.728,0.703,-24.475,77.026,18.738,44.096,-24.403
-0.114,0.716,0.656,-12.39,70.862,14.465,45.778,-16.853
-0.028,0.759,0.631,-6.714,59.814,12.024,47.307,-10.355
0.059,0.728,0.677,7.202,62.439,7.935,47.545,-4.113
0.166,0.751,0.639,12.024,54.565,10.864,48.614,1.22
0.263,0.716,0.662,4.333,46.509,13.55,48.128,6.663
0.295,0.702,0.668,8.057,42.419,12.146,46.403,11.293
0.361,0.687,0.569,-0.854,14.954,-1.77,45.988,15.855
0.338,0.663,0.635,11.169,18.86,-0.305,44.38,18.52
0.365,0.747,0.582,2.869,15.808,-2.319,44.935,20.065
0.377,0.707,0.612,0.549,3.54,2.808,45.065,21.337
0.334,0.635,0.568,5.554,0.793,0.244,44.681,21.193
0.353,0.697,0.584,39.551,0.122,4.395,45.411,21.431
aX,aY,aZ,gX,gY,gZ,Roll,Pitch
0.4,0.652,0.601,2.441,-0.549,-0.061,44.064,22.227
0.447,0.681,0.594,-24.17,-6.836,4.7,43.559,23.371
0.32,0.781,0.552,-7.874,-8.972,4.272,45.299,22.598
0.278,0.677,0.521,11.23,5.066,10.193,46.076,21.883
0.334,0.663,0.562,12.146,12.878,4.517,46.914,21.064
0.294,0.787,0.51,-33.997,-10.559,-7.385,49.651,18.739
0.35,0.813,0.58,-3.174,-34.851,-4.15,49.51,18.953
0.269,0.805,0.587,1.953,-42.969,-9.277,50.117,18.179
0.186,0.755,0.566,18.738,-50.354,-11.353,51.661,15.828
0.079,0.757,0.592,7.874,-34.546,-16.785,51.513,12.771
0.06,0.722,0.678,8.667,-28.87,-13,50.601,8.693
0.015,0.654,0.727,18.982,-31.372,-14.832,48.147,5.03
-0.021,0.638,0.785,21.118,-24.353,-16.418,44.845,1.948
-0.107,0.517,0.819,30.579,-46.021,-15.259,40.048,-0.77
-0.152,0.537,0.859,14.954,-42.908,-25.635,36.226,-3.829
-0.247,0.459,0.843,14.343,-42.297,-25.452,32.711,-7.606
-0.34,0.509,0.88,23.437,-46.57,-20.264,29.973,-12.061
-0.429,0.428,0.748,31.311,-32.837,-9.521,28.711,-16.859
-0.508,0.322,0.713,29.541,-24.963,-3.052,25.957,-22.834
-0.516,0.36,0.719,-1.709,-30.09,-21.118,24.547,-27.377
-0.634,0.391,0.598,10.559,-27.771,-20.874,23.379,-33.463
-0.681,0.443,0.57,-3.357,-17.578,-4.089,23.44,-37.864
-0.667,0.427,0.526,5.798,-5.249,5.127,25.024,-40.68
-0.697,0.426,0.484,3.235,11.963,4.7,26.041,-44.205
-0.684,0.444,0.474,-9.399,25.513,21.118,26.996,-45.395
-0.566,0.368,0.568,-21.545,36.865,28.198,26.623,-44.687
-0.523,0.443,0.731,-36.621,43.64,12.207,26.688,-41.269
-0.455,0.52,0.723,-31.494,43.091,14.404,27.959,-36.032
-0.399,0.593,0.732,-29.175,38.635,12.451,29.727,-30.054
-0.336,0.605,0.677,-19.348,45.715,19.104,32.937,-25.538
-0.29,0.604,0.739,-18.921,55.664,15.137,35.707,-21.849
-0.203,0.662,0.678,-10.254,42.847,19.165,38.647,-18.142
-0.138,0.693,0.66,-12.573,49.561,12.573,41.293,-14.409
-0.038,0.72,0.725,-7.446,47.058,8.972,42.916,-9.784
-0.011,0.727,0.643,-7.019,37.048,6.226,45.699,-5.715
0.077,0.76,0.605,-6.592,42.419,4.517,47.737,-1.609
0.114,0.756,0.631,7.507,33.936,3.296,48.658,2.058
0.215,0.767,0.57,-1.709,28.809,4.15,50.516,5.811
0.232,0.759,0.549,-5.859,31.921,2.502,51.278,9.413
0.307,0.828,0.578,5.005,6.836,-0.305,51.387,12.595
0.252,0.801,0.467,6.165,14.893,0.366,52.893,14.733
0.37,0.727,0.524,14.16,1.526,6.775,52.205,17.133
0.292,0.856,0.529,2.625,-0.916,-4.456,52.909,17.666
aX,aY,aZ,gX,gY,gZ,Roll,Pitch
0.336,0.738,0.507,23.071,-0.427,1.892,52.647,18.569
0.354,0.809,0.476,-7.324,-10.071,6.104,51.993,19.915
0.281,0.835,0.466,-5.005,-8.789,5.859,54.044,18.414
0.274,0.82,0.475,0.61,-10.925,14.526,54.4,18.422
0.151,0.883,0.487,18.677,-19.287,11.536,56.923,15.386
0.206,0.762,0.408,11.597,-12.451,-2.686,58.153,13.57
0.203,0.85,0.654,15.808,-35.645,0.732,56.565,12.118
0.118,0.755,0.586,10.925,-48.767,-7.08,55.427,9.9
0.107,0.859,0.591,16.846,-30.457,-8.484,54.204,9.178
-0.013,0.75,0.67,30.396,-39.124,-23.926,51.739,5.82
-0.083,0.668,0.75,32.776,-52.49,-19.592,49.397,1.846
-0.12,0.546,0.85,34.729,-51.514,-25.33,44.604,-1.557
-0.201,0.493,0.791,19.043,-53.711,-25.94,38.5,-6.059
-0.344,0.527,0.741,9.705,-56.152,-31.25,34.746,-11.002
-0.475,0.513,0.689,16.235,-45.044,-27.222,32.381,-17.076
-0.534,0.524,0.601,-3.357,-49.316,-16.235,32.539,-23.984
-0.596,0.607,0.508,1.099,-41.016,-4.028,34.13,-30.265
-0.672,0.547,0.417,11.047,-36.804,-5.859,34.582,-36.165
-0.721,0.581,0.375,5.005,-30.212,-1.343,35.569,-40.52
-0.728,0.535,0.319,3.357,-17.7,6.409,35.673,-44.264
-0.755,0.512,0.297,2.625,-13.794,-1.099,34.186,-47.99
-0.81,0.558,0.239,5.188,-12.634,0.061,33.893,-50.232
-0.839,0.552,0.199,-0.183,-0.61,0.61,33.13,-52.54
-0.759,0.566,0.18,-2.869,15.198,5.981,33.589,-53.154
-0.794,0.43,0.194,-14.282,40.344,5.615,32.504,-54.835
-0.705,0.578,0.268,-27.1,40.466,1.648,33.508,-53.578
-0.668,0.583,0.391,-27.649,59.875,6.287,34.803,-50.739
-0.605,0.645,0.391,-51.88,49.744,18.005,36.351,-47.286
-0.551,0.695,0.48,-38.879,57.861,10.376,40.239,-40.773
-0.44,0.722,0.531,-29.785,59.692,5.615,42.48,-35.312
-0.345,0.716,0.528,-18.86,50.476,9.521,45.411,-29.851
-0.345,0.753,0.513,-12.695,53.589,1.465,47.403,-25.402
-0.254,0.82,0.566,-8.484,63.049,4.15,49.763,-20.559
-0.032,0.83,0.56,-13.733,72.083,0.732,52.681,-14.424
0.025,0.819,0.555,-12.695,57.312,3.662,54.749,-8.849
0.092,0.897,0.446,-3.296,54.932,-10.193,57.629,-2.438
0.205,0.725,0.547,25.757,47.668,-2.93,56.965,4.258
0.284,0.77,0.469,7.935,27.771,-10.193,56.749,9.076
0.292,0.804,0.518,5.432,7.385,1.343,55.907,13.081
0.295,0.792,0.521,7.385,-2.93,-2.38,53.113,16.173
0.242,0.798,0.504,12.939,1.587,2.319,53.987,16.541
aX,aY,aZ,gX,gY,gZ,Roll,Pitch
0.335,0.764,0.602,5.005,-0.122,3.662,52.305,16.96
0.298,0.685,0.535,7.324,-11.108,4.028,51.026,17.412
0.27,0.789,0.55,-6.226,-13.306,-0.122,50.834,17.001
0.232,0.802,0.49,5.249,1.77,8.789,51.061,16.88
0.271,0.834,0.58,-11.963,-15.869,-7.507,52.256,15.801
0.232,0.777,0.562,-0.916,-38.879,-4.944,53.112,14.546
0.095,0.712,0.498,23.376,-24.963,-5.92,53.811,12.38
0.141,0.718,0.595,-23.01,-23.621,-19.714,52.258,11.089
0.112,0.768,0.71,11.108,-47.974,-10.559,50.692,8.689
0.061,0.722,0.545,18.616,-33.447,-20.508,50.78,6.23
0.032,0.733,0.662,5.737,-27.649,-21.179,49.241,5.118
-0.034,0.713,0.677,6.409,-24.719,-14.404,48.481,2.493
-0.032,0.684,0.687,6.653,-28.442,-11.963,47.973,0.392
-0.05,0.641,0.751,5.066,-25.391,-18.982,44.925,-1.232
-0.108,0.636,0.739,12.085,-36.438,-16.418,43.04,-3.286
-0.147,0.66,0.805,7.446,-37.292,-17.822,41.13,-4.854
-0.247,0.628,0.723,19.714,-46.997,-20.325,39.9,-7.941
-0.306,0.597,0.693,5.859,-39.551,-14.771,39.412,-11.743
-0.373,0.641,0.635,4.456,-37.354,-8.606,39.631,-15.711
-0.44,0.56,0.604,4.15,-24.78,-9.338,39.098,-20.796
-0.477,0.69,0.593,20.691,-30.64,-3.906,39.797,-24.23
-0.554,0.573,0.552,6.958,-32.898,3.662,39.266,-28.271
-0.577,0.656,0.509,-11.108,-17.944,-4.761,39.114,-31.419
-0.647,0.627,0.445,4.272,-26.733,5.31,39.572,-34.352
-0.69,0.586,0.394,0.732,-19.287,7.751,38.09,-38.59
-0.725,0.535,0.327,7.935,-11.658,7.08,37.556,-42.019
-0.778,0.514,0.303,5.981,-7.263,6.531,35.272,-46.481
-0.775,0.517,0.298,0,2.686,4.517,33.515,-49.607
-0.777,0.505,0.259,2.197,16.602,4.578,32.291,-51.993
-0.745,0.495,0.347,-9.216,34.18,8.24,31.591,-52.462
-0.672,0.516,0.461,-18.188,40.039,7.019,31.886,-50.496
-0.602,0.574,0.53,-19.592,44.128,7.751,32.988,-46.76
-0.575,0.638,0.633,-18.372,36.316,10.62,34.314,-41.13
-0.512,0.599,0.63,-6.409,23.376,9.583,35.489,-36.089
-0.515,0.647,0.631,-3.54,14.465,7.69,36.883,-32.551
-0.505,0.562,0.604,-0.244,20.691,7.996,36.816,-31.068
-0.502,0.617,0.636,-0.854,16.296,5.188,36.947,-30.283
-0.472,0.526,0.638,-2.686,21.606,1.099,36.27,-30.106
-0.414,0.541,0.672,-1.038,21.301,8.301,35.264,-29.13
-0.372,0.592,0.707,-11.78,20.752,2.563,35.555,-26.728
-0.331,0.608,0.689,-8.972,18.433,4.028,35.835,-24.234
-0.289,0.661,0.659,-11.902,18.677,4.517,38.044,-21.158
-0.27,0.676,0.655,-12.695,28.992,4.272,40.313,-18.78
-0.186,0.709,0.642,-14.465,37.537,4.272,42.898,-16.032
-0.138,0.64,0.718,-3.601,45.715,6.104,43.649,-13.118
-0.025,0.763,0.704,5.188,38.391,12.939,45.001,-9.025
0.015,0.7,0.624,4.211,32.959,14.343,46.077,-4.901
0.069,0.737,0.683,-8.911,37.109,7.812,46.131,-1.147
0.137,0.721,0.612,-9.216,33.203,7.263,47.992,2.864
0.173,0.715,0.562,-39.612,38.391,-7.751,48.823,5.934
0.172,0.892,0.392,28.259,41.626,2.197,52.923,8.253
0.317,0.769,0.585,17.822,34.607,10.559,53.457,11.979
0.347,0.714,0.573,5.554,4.944,2.441,52.848,15.095
0.291,0.772,0.524,-1.77,10.315,-1.16,53.131,16.652
0.322,0.779,0.518,-2.014,4.761,-1.099,50.024,18.829
aX,aY,aZ,gX,gY,gZ,Roll,Pitch
0.428,0.843,0.299,2.136,-0.732,-2.625,58.195,25.595
0.449,0.841,0.346,-37.903,10.864,-3.357,57.114,25.933
0.385,0.798,0.321,-0.244,-16.174,5.31,57.371,25.344
0.342,0.965,0.197,-22.827,-1.709,13.428,60.111,23.791
0.39,0.858,0.369,18.677,0.549,4.944,60.084,23.07
0.33,1.076,0.24,-13.367,-26.55,10.193,63.617,20.53
0.257,0.902,0.31,-0.671,-34.302,7.69,65.557,18.425
0.199,0.928,0.353,22.644,-44.067,8.362,65.286,16.495
0.161,0.879,0.37,30.212,-55.786,3.601,67.251,13.354
0.001,0.887,0.482,23.01,-50.232,-2.686,65.534,9.01
-0.033,0.847,0.531,26.611,-44.739,-10.132,63.485,4.767
-0.179,0.764,0.604,26.001,-56.519,-3.784,59.531,-0.721
-0.281,0.727,0.568,25.208,-55.786,-2.197,55.226,-7.193
-0.325,0.64,0.613,19.165,-48.95,-2.136,50.488,-12.233
-0.464,0.601,0.571,34.241,-43.457,-9.827,45.694,-19.094
-0.49,0.696,0.581,4.761,-39.917,-4.883,43.496,-23.776
-0.566,0.568,0.498,27.771,-38.94,-10.193,40.614,-28.663
-0.639,0.724,0.379,-15.686,-33.447,0.977,41.133,-33.289
-0.622,0.541,0.288,13.367,-23.743,-1.465,41.065,-37.024
-0.693,0.626,0.36,6.287,-12.756,-4.517,39.853,-41.055
-0.699,0.577,0.32,12.939,-6.775,1.953,39.682,-43.328
-0.716,0.639,0.278,-0.916,-5.615,2.747,38.467,-45.418
-0.705,0.581,0.295,4.15,6.042,0.305,38.215,-45.863
-0.708,0.616,0.322,-12.024,16.724,-1.831,38.107,-46.303
-0.718,0.598,0.225,-13.916,25.635,5.005,38.515,-46.733
-0.649,0.674,0.333,-15.381,32.776,16.418,39.286,-45.476
-0.605,0.67,0.421,-23.865,50.415,16.663,40.646,-43.049
-0.564,0.652,0.423,-39.551,54.382,8.972,41.835,-40.698
-0.495,0.711,0.537,-24.963,61.89,5.554,43.24,-35.822
-0.328,0.673,0.525,-10.559,59.204,4.883,44.475,-31.035
-0.265,0.727,0.654,-16.296,57.861,2.747,45.644,-25.303
-0.192,0.768,0.667,-17.09,33.875,7.202,46.798,-18.913
-0.163,0.779,0.585,-4.7,25.818,4.517,48.492,-13.946
-0.131,0.802,0.55,-3.967,28.137,1.16,50.14,-10.812
-0.084,0.798,0.598,-5.92,25.574,-0.916,51.899,-8.204
-0.028,0.774,0.584,11.108,23.926,-1.465,53.262,-5.929
0.008,0.808,0.574,-2.136,23.071,1.648,53.914,-3.436
0.053,0.75,0.573,-5.493,33.264,-0.977,53.337,-0.76
0.136,0.835,0.57,-12.939,27.405,-0.244,53.93,2.466
0.193,0.83,0.506,-1.709,27.527,-1.465,55.005,5.68
0.227,0.804,0.501,-4.761,24.658,-0.122,55.244,8.942
0.286,0.835,0.509,3.601,24.17,-2.38,55.763,12.159
0.316,0.782,0.47,-14.832,14.587,0.061,55.514,15.019
0.307,0.9,0.302,-17.639,7.935,-2.014,57.537,16.774
0.32,0.836,0.369,-10.559,8.484,-6.897,58.467,18.205
0.336,0.894,0.374,-4.456,7.874,-2.93,59.841,18.916
0.339,0.83,0.365,5.371,3.418,-1.099,60.987,19.215
0.361,0.891,0.406,3.662,3.723,-3.296,59.498,19.798
aX,aY,aZ,gX,gY,gZ,Roll,Pitch
0.362,0.792,0.452,23.743,-2.258,0.366,58.086,20.381
0.394,0.902,0.401,-28.748,0.061,-2.136,57.438,21.057
0.352,0.841,0.379,-5.798,-7.568,-0.427,57.303,21.149
0.332,0.881,0.367,-5.554,-1.465,8.606,57.798,20.901
0.344,0.758,0.385,3.601,0.183,-1.77,58.278,20.967
0.379,0.929,0.418,12.329,-38.391,3.54,58.446,20.606
0.27,0.794,0.448,-21.667,-53.772,-6.531,58.092,19.565
0.16,0.901,0.395,17.883,-50.171,-7.629,59.263,17.05
0.123,0.817,0.5,15.625,-43.152,-7.324,59.912,13.565
0.038,0.792,0.505,9.888,-40.283,-10.01,59.571,8.887
0.013,0.811,0.589,12.817,-31.921,-9.827,58.734,4.937
-0.019,0.803,0.649,26.794,-32.471,-5.493,55.097,2.272
-0.074,0.741,0.649,10.864,-38.513,-6.714,52.756,-0.603
-0.144,0.69,0.67,22.644,-41.504,-4.089,49.865,-3.22
-0.202,0.6,0.697,12.512,-38.025,-9.583,46.378,-6.434
-0.324,0.647,0.721,41.809,-52.49,-6.653,43.356,-10.999
-0.442,0.62,0.702,6.531,-33.691,-13.489,40.412,-16.372
-0.466,0.514,0.657,14.648,-31.555,-4.639,37.304,-21.414
-0.551,0.41,0.589,15.686,-36.133,-9.46,34.316,-27.317
-0.638,0.497,0.538,36.56,-30.884,-6.897,32.107,-33.111
-0.694,0.468,0.49,0.488,-23.621,-3.784,30.008,-38.489
-0.685,0.49,0.508,5.554,-21.301,-0.549,29.205,-42.267
-0.74,0.452,0.428,16.602,-25.94,-2.197,29.371,-45.227
-0.817,0.506,0.357,8.301,-7.874,0.916,29.138,-48.3
-0.765,0.497,0.325,-4.456,2.441,-0.305,29.655,-49.935
-0.769,0.448,0.391,-0.854,17.09,5.31,28.972,-51.908
-0.746,0.483,0.494,-9.583,11.902,1.831,29.12,-51.211
-0.731,0.453,0.456,-4.456,14.099,1.526,28.651,-50.159
-0.743,0.497,0.443,-9.521,20.264,7.019,28.377,-49.059
-0.671,0.489,0.503,-12.39,23.926,5.188,29.068,-46.956
-0.624,0.483,0.547,-18.982,24.109,7.874,29.586,-45.321
-0.665,0.536,0.552,-13.672,26.611,9.644,30.613,-43.336
-0.579,0.542,0.537,-13.367,35.95,12.756,31.697,-40.59
-0.506,0.591,0.597,-22.278,50.11,4.639,33.429,-37.428
-0.413,0.64,0.638,-14.221,44.739,13.062,36.013,-33.433
-0.359,0.579,0.637,-26.184,38.269,7.69,37.701,-28.872
-0.271,0.703,0.622,-21.851,43.762,0,40.553,-23.623
-0.217,0.735,0.62,-13.672,42.664,5.127,43.346,-18.988
-0.111,0.753,0.613,-9.644,50.415,7.69,46.055,-14.417
-0.015,0.807,0.636,-12.756,53.101,9.155,49.446,-8.957
0.059,0.743,0.615,30.029,51.453,14.221,50.544,-4.147
0.096,0.751,0.63,9.949,51.025,12.817,50.758,0.413
0.177,0.777,0.652,-12.451,44.861,8.362,50.329,4.538
0.249,0.771,0.529,1.953,31.86,5.371,50.642,8.484
0.273,0.91,0.539,-3.418,22.888,0.061,52.292,11.297
0.268,0.699,0.447,22.217,13.489,-2.319,53.073,14.165
0.382,0.781,0.535,11.047,2.319,3.357,53.231,17.286
0.294,0.775,0.534,3.174,7.935,-7.69,52.949,17.886
aX,aY,aZ,gX,gY,gZ,Roll,Pitch
0.283,0.717,0.527,2.136,-0.854,-2.258,51.26,18.795
0.277,0.668,0.456,10.864,-3.906,4.761,50.817,19.026
0.243,0.84,0.486,4.333,-1.343,11.536,52.704,16.92
0.347,0.653,0.523,19.897,12.512,4.578,51.36,18.186
0.266,0.785,0.474,-3.113,-2.686,-0.61,52.682,17.807
0.267,0.816,0.627,-1.343,-32.104,-8.484,52.321,16.687
0.209,0.76,0.583,10.437,-47.852,-6.714,50.772,16.253
0.11,0.733,0.622,6.836,-34.058,-12.085,51.531,12.454
0.046,0.731,0.652,2.441,-25.024,-11.047,49.867,9.15
0.077,0.719,0.655,-4.272,-30.029,-12.939,49.081,6.529
0.01,0.748,0.655,6.714,-34.607,-12.024,48.469,3.565
-0.03,0.736,0.7,17.517,-29.48,-9.888,47.757,1.5
-0.045,0.687,0.736,17.334,-35.4,-10.193,46.456,0.189
-0.163,0.609,0.753,24.78,-44.556,-14.709,44.247,-3.276
-0.186,0.664,0.761,8.789,-41.992,-17.212,42.129,-6.058
-0.255,0.582,0.713,15.137,-41.199,-17.944,39.962,-9.436
-0.374,0.621,0.709,4.211,-48.035,-20.935,38.654,-14.29
-0.47,0.623,0.616,17.273,-37.659,-11.719,38.942,-18.93
-0.538,0.546,0.569,15.32,-33.813,-3.662,37.613,-24.899
-0.603,0.511,0.532,6.653,-28.748,-3.601,36.271,-30.695
-0.663,0.53,0.535,10.62,-20.752,-2.136,34.614,-35.785
-0.644,0.59,0.481,5.188,-20.508,1.587,33.926,-38.869
-0.656,0.491,0.384,12.39,-18.25,-0.244,33.436,-41.804
-0.757,0.552,0.354,4.456,-7.568,-2.258,33.742,-44.322
-0.744,0.604,0.355,-0.671,4.578,-0.183,34.844,-45.671
-0.714,0.554,0.435,3.906,5.432,7.874,34.079,-46.98
-0.739,0.534,0.389,1.038,13.855,4.578,33.991,-47.383
-0.702,0.522,0.408,-6.958,25.024,7.202,33.823,-46.783
-0.594,0.497,0.404,-24.658,21.301,2.625,33.382,-45.859
-0.623,0.638,0.562,-12.451,28.442,1.221,34.497,-43.377
-0.607,0.653,0.521,-17.517,35.156,9.155,36.192,-40.206
-0.541,0.648,0.522,-19.897,41.992,11.475,38.134,-36.825
-0.439,0.65,0.586,-25.879,42.236,14.526,39.757,-33.081
-0.411,0.687,0.541,-21.606,51.453,14.954,41.8,-30.325
-0.314,0.709,0.658,-27.466,53.589,20.874,43.198,-25.676
-0.278,0.747,0.704,-22.339,44.373,15.442,44.156,-21.081
-0.212,0.694,0.568,-15.32,37.048,8.85,45.847,-17.896
-0.181,0.801,0.501,-11.292,45.898,1.892,48.364,-14.432
-0.058,0.878,0.536,-10.681,50.781,-3.357,52.173,-10.628
0.007,0.809,0.513,6.897,52.185,1.404,55.771,-6.617
0.131,0.844,0.572,-0.854,43.518,1.16,57.479,-1.467
0.155,0.845,0.536,1.404,33.691,-2.93,57.279,3.343
0.324,0.804,0.576,13.855,23.254,-0.916,55.368,8.838
0.207,0.77,0.484,-1.526,18.311,-8.484,54.637,11.773
0.363,0.801,0.489,13.611,8.301,6.409,54.067,15.296
0.205,0.804,0.505,3.296,15.198,-1.038,53.765,16.199
0.293,0.717,0.495,31.982,-6.958,2.93,54.034,16.236
aX,aY,aZ,gX,gY,gZ,Roll,Pitch