aX,aY,aZ,gX,gY,gZ,Roll,Pitch
0.328,0.867,0.323,1.709,2.136,0,62.04,19.52
0.316,0.869,0.314,-0.977,3.235,0.061,62.451,19.204
0.344,0.942,0.223,0.427,-17.639,6.226,63.933,19.359
0.242,0.879,0.219,-10.559,-3.906,8.24,65.293,18.311
0.255,0.945,0.162,5.981,13.55,12.939,67.873,17.158
0.293,0.924,0.455,38.086,3.54,4.639,67.182,16.462
0.193,0.918,0.219,3.479,-1.099,11.902,68.519,14.459
0.22,0.972,0.302,-7.446,-16.541,0,68.382,13.756
0.249,0.953,0.578,37.598,-60.181,7.507,64.17,13.192
0.094,0.629,0.345,63.538,-46.692,7.324,64.847,11.372
0.05,0.855,0.292,7.69,-41.016,12.024,64.362,9.332
0.049,0.994,0.244,-40.527,-29.602,15.93,66.048,6.764
0.047,0.829,0.508,12.085,-43.274,-2.869,66.912,3.832
-0.01,0.902,0.54,46.936,-69.092,-2.197,66.065,1.991
-0.104,1.176,0.598,179.687,-104.614,-8.911,64.158,-0.239
-0.434,0.331,0.65,88.745,-58.777,-32.166,54.036,-7.188
-0.444,0.41,0.762,1.709,-38.574,-30.273,45.869,-14.619
-0.511,0.43,0.659,9.338,-51.575,-20.386,37.51,-22.782
-0.677,0.432,0.591,24.292,-26.184,-13.123,25.446,-33.615
-0.655,0.409,0.583,9.216,-19.653,-10.925,25.917,-36.487
-0.643,0.469,0.542,-16.296,-15.503,3.723,26.84,-40.176
-0.673,0.172,0.247,-74.036,27.649,6.409,24.21,-47.11
-0.636,0.726,0.614,30.09,22.766,-17.456,28.455,-44.38
-0.544,0.644,0.481,22.156,14.648,13.428,32.747,-42.172
-0.521,0.433,0.326,-182.922,63.843,14.038,34.252,-42.562
-0.477,0.502,0.385,-6.104,53.162,38.269,39.167,-36.65
-0.404,0.889,0.397,53.65,59.265,10.925,44.479,-33.555
-0.176,0.862,0.512,-19.104,93.201,8.667,49.899,-26.713
-0.118,0.805,0.615,-13.489,102.295,-2.869,53.749,-18.061
0.024,0.939,0.429,-35.095,87.585,-6.104,59.405,-9.551
0.193,0.923,0.313,-22.278,75.745,-10.986,62.065,-1.089
0.353,0.97,0.347,-14.893,68.298,-7.141,64.127,6.428
0.268,0.98,0.446,4.089,40.771,-5.371,65.342,11.528
0.255,0.909,0.316,14.099,5.127,-17.639,64.806,14.814
0.263,0.899,0.216,-12.878,9.094,-5.432,65.066,15.943
0.355,0.89,0.298,7.629,-0.61,1.038,65.037,16.336
0.105,0.926,0.276,5.493,-0.977,-0.916,67.827,14.477
aX,aY,aZ,gX,gY,gZ,Roll,Pitch
0.371,0.802,0.382,0.488,0.427,-1.099,56.378,22.693
0.387,0.916,0.404,-21.24,6.226,-5.737,57.542,21.871
0.377,0.833,0.329,0.732,-17.639,13.611,58.037,22.186
0.312,0.89,0.318,-12.146,-16.968,24.902,59.372,21.219
0.22,0.739,0.212,-184.021,-12.146,29.236,61.821,19.758
0.202,0.765,0.256,63.171,-32.654,17.334,64.004,18.011
0.156,0.673,0.462,-37.415,-29.236,9.033,63.442,15.039
0.089,0.866,0.359,41.443,-42.603,-2.625,64.5,11.402
0.077,0.897,0.587,69.641,-42.542,-2.441,61.406,8.26
0.027,1.32,0.583,22.522,-66.589,0.854,61.697,4.699
-0.214,1.06,0.429,153.015,-77.515,4.639,64.695,-0.263
-0.341,0.428,0.557,107.361,-53.04,-17.944,59.27,-5.997
-0.385,0.44,0.662,17.212,-34.424,-25.635,53.43,-13.027
-0.414,0.465,0.718,67.017,-69.763,-23.376,41.302,-21.903
-0.626,0.278,0.661,36.316,-47.119,-23.865,27.167,-30.002
-0.648,0.34,0.557,20.508,-17.639,-6.104,24.626,-34.544
-0.691,0.22,0.612,18.311,-2.075,-1.648,20.493,-39.753
-0.631,0.156,0.618,-43.274,6.348,-5.249,15.555,-44.512
-0.63,0.37,0.256,-182.556,44.495,-9.338,18.171,-48.354
-0.612,0.079,0.73,-4.272,44.739,31.738,13.676,-47.325
-0.488,0.562,0.673,-59.143,61.401,13.245,19.578,-42.696
-0.306,0.677,0.598,-44.434,64.087,22.583,29.043,-35.841
-0.122,0.805,0.681,-44.128,75.073,18.677,34.52,-24.072
-0.049,0.801,0.742,-28.381,71.594,14.038,44.832,-13.843
-0.027,0.81,0.619,-3.784,72.083,13.184,49.016,-7.078
0.064,0.851,0.552,-37.72,75.256,6.897,51.52,-1.842
0.224,0.737,0.531,-25.208,71.716,0.854,52.518,3.018
0.402,0.933,0.448,-18.311,55.664,-12.512,55.95,9.496
0.361,0.941,0.344,15.564,15.808,-12.146,58.155,14.946
0.288,0.858,0.362,1.77,11.658,-2.319,58.655,18.289
0.408,0.83,0.351,13.428,2.136,6.042,59.535,20.664
0.316,0.913,0.413,-4.517,-1.038,-2.808,60.422,19.695
0.274,0.873,0.223,-1.953,-5.188,-0.244,61.802,19.038
aX,aY,aZ,gX,gY,gZ,Roll,Pitch
0.31,0.796,0.373,16.235,0.488,-0.732,61.072,19.597
0.366,0.884,0.436,-36.316,6.653,-3.052,61.007,18.635
0.293,0.879,0.333,-32.104,-19.775,12.939,61.731,18.598
0.245,0.953,0.25,-117.737,-25.208,18.799,62.27,17.811
0.215,1.185,0.223,51.758,-42.053,24.048,66.802,15.291
0.153,0.685,0.737,33.02,-31.555,-11.108,64.2,12.729
0.074,0.83,0.292,93.567,-57.861,-2.563,65.67,9.873
-0.08,0.006,0.555,144.897,-40.161,-19.47,55.739,6.354
-0.05,0.594,0.807,-0.183,-48.34,-36.682,41.459,1.748
-0.118,0.711,0.655,44.861,-73.059,-26.184,42.752,-3.151
-0.302,0.729,0.685,108.215,-89.783,-8.118,36.481,-9.222
-0.472,0.483,0.642,2.808,-72.998,-29.114,40.518,-14.066
-0.527,0.567,0.54,31.25,-54.443,-10.132,40.703,-21.826
-0.626,0.471,0.532,33.813,-23.01,-8.545,36.167,-30.375
-0.622,0.465,0.487,31.921,1.221,4.15,32.261,-37.162
-0.668,0.182,0.686,-155.579,40.283,-0.244,26.913,-41.038
-0.557,0.377,0.549,160.706,14.709,14.954,24.069,-42.429
-0.53,0.481,0.573,-56.641,31.311,9.521,24.485,-40.879
-0.575,0.252,0.764,-75.928,27.649,34.668,20.421,-38.976
-0.465,0.792,0.363,-124.207,53.955,28.564,31.58,-35.818
-0.404,-0.172,0.898,40.649,35.156,57.678,22.539,-33.964
-0.283,0.598,0.809,-79.468,76.538,15.442,23.903,-28.41
-0.12,0.713,0.636,-63.293,86.06,13.428,32.865,-20.937
0.053,0.772,0.682,-24.17,89.05,18.188,31.521,-11.902
0.192,0.777,0.694,-15.625,70.007,16.602,45.349,-2.262
0.195,0.732,0.501,-5.188,58.777,7.263,49.767,4.669
0.34,0.873,0.44,-23.437,35.706,-0.549,52.226,11.259
0.297,0.689,0.414,0.305,14.832,-11.536,53.275,15.491
0.312,0.85,0.456,-1.831,3.662,0.427,55.728,17.491
0.382,0.803,0.419,12.085,0.61,1.465,55.826,20.033
0.331,0.857,0.438,3.662,-1.709,4.028,55.783,19.983
0.316,0.76,0.414,35.583,-1.77,5.31,56.228,19.93
aX,aY,aZ,gX,gY,gZ,Roll,Pitch
0.325,0.775,0.47,11.658,-2.136,0.549,55.384,20.408
0.39,0.849,0.563,-43.884,-0.183,-3.845,54.335,19.962
0.249,0.811,0.326,-28.992,-26.184,12.146,55.609,19.3
0.233,0.867,0.354,-64.27,-19.714,15.015,57.665,17.839
0.213,0.646,0.44,-31.494,-21.729,6.897,57.733,16.816
0.256,0.694,0.303,-265.808,-36.743,-13.245,60.439,15.917
0.193,1.027,0.49,63.782,-65.369,-16.724,60.595,13.965
0.085,0.896,0.493,35.889,-76.477,-18.005,60.038,11.453
-0.014,0.755,0.675,120.667,-88.013,-28.198,58.967,7.601
-0.09,0.778,0.665,-124.084,-75.439,-26.489,56.015,2.397
-0.369,0.614,0.558,81.604,-76.782,-26.855,51.484,-5.724
-0.472,0.471,0.662,-19.531,-55.115,-18.127,43.811,-14.48
-0.558,0.494,0.613,31.799,-42.175,-6.775,39.025,-23.444
-0.62,0.421,0.545,5.371,-26.123,2.441,32.671,-33.019
-0.675,0.388,0.519,13.062,-15.015,5.981,28.27,-38.38
-0.645,0.367,0.502,6.165,5.31,0.122,26.744,-42.298
-0.659,0.31,0.502,-76.416,29.236,-3.662,24.103,-45.579
-0.578,0.675,0.456,34.363,33.752,-9.949,28.286,-44.133
-0.475,0.798,0.5,-140.625,47.546,-5.188,35.046,-39.013
-0.408,0.701,0.566,-6.775,45.532,21.606,40.276,-33.49
-0.337,0.737,0.358,-260.803,87.769,7.812,48.204,-27.434
-0.15,1.104,0.517,-16.113,90.576,15.137,54.565,-19.536
-0.04,0.762,0.553,-30.518,81.055,11.841,56.309,-13.623
-0.04,0.949,0.484,-11.536,85.51,1.953,60.681,-8
0.141,0.844,0.399,1.465,73.364,11.658,61.879,-1.224
0.263,0.879,0.463,-5.005,77.026,-11.475,60.696,4.728
0.29,0.942,0.413,4.333,40.283,-5.066,62.534,9.255
0.289,0.777,0.336,2.625,-2.686,6.653,61.246,14.509
0.283,1.009,0.364,6.531,2.625,-1.587,61.757,15.955
0.289,0.831,0.344,10.62,11.292,-2.441,62.434,16.665
0.29,0.752,0.361,15.076,3.235,-1.16,61.675,17.492
0.305,0.823,0.415,16.418,2.441,1.16,61.066,17.4
aX,aY,aZ,gX,gY,gZ,Roll,Pitch
0.299,0.844,0.374,13.428,-0.977,0.732,59.613,18.301
0.292,0.951,0.513,-25.879,1.953,-5.005,58.779,17.512
0.247,0.969,0.386,14.709,-18.616,1.77,60.383,16.087
0.26,0.756,0.449,-126.953,-21.606,10.376,59.871,15.646
0.186,1.231,0.38,-49.133,-55.542,17.395,63.02,12.974
0.103,1.082,0.257,34.18,-73.364,32.349,67.501,10.476
0.03,1.213,0.35,262.573,-90.515,13.123,70.123,7.284
-0.209,0.525,0.637,144.47,-44.861,-33.081,68.104,1.424
-0.123,1.38,0.486,1.953,-70.557,-34.668,67.466,-2.527
-0.348,-0.221,0.614,237.732,-72.021,-50.293,52.942,-10.327
-0.382,0.391,0.709,13.855,-50.842,-27.344,37.883,-18.314
-0.479,0.434,0.682,-11.047,-61.035,-19.47,35.079,-22.7
-0.663,0.518,0.445,-7.629,-51.208,-4.944,20.004,-34.785
-0.656,0.542,0.482,19.958,-3.052,-2.502,30.652,-36.121
-0.708,0.385,0.506,20.447,2.441,2.319,29.824,-41.539
-0.693,0.085,0.596,-78.979,39.307,-1.343,24.29,-46.938
-0.503,0.597,0.446,176.819,23.193,3.601,26.234,-44.656
-0.501,0.394,0.559,-0.244,33.936,16.907,24.567,-43.165
-0.447,0.667,0.573,-9.827,47.607,4.456,29.721,-37.572
-0.341,1.183,0.393,-50.232,53.467,4.395,46.838,-27.398
-0.217,0.324,0.669,64.087,62.317,43.884,43.978,-24.038
-0.133,1,0.483,-97.839,78.43,-12.695,52.857,-16.612
-0.13,0.936,0.384,20.935,85.815,-5.737,58.668,-11.758
0.086,0.874,0.388,-18.677,105.347,4.272,57.939,-6.12
0.317,0.884,0.354,-25.391,83.313,3.601,66.394,1.995
0.37,1.064,0.288,-9.583,48.889,-14.832,67.543,9.1
0.296,1.058,0.255,9.827,8.179,6.042,66.7,14.656
0.269,0.952,0.284,29.297,11.047,-1.16,66.506,16.859
0.311,0.922,0.288,17.334,24.78,-5.737,67.302,16.71
0.314,0.837,0.374,-2.136,6.165,0.793,65.843,16.745
0.311,0.842,0.259,56.763,-6.47,9.277,64.378,17.801
aX,aY,aZ,gX,gY,gZ,Roll,Pitch
0.308,0.817,0.303,23.682,-1.404,2.686,62.102,19.492
0.363,0.976,0.358,-30.09,2.686,-9.949,62.262,19.368
0.27,0.806,0.267,-35.828,-9.216,13.672,63.019,18.846
0.269,0.931,0.234,1.77,-13,11.902,64.56,18.049
0.262,1.261,0.218,-33.508,-9.46,16.113,68.232,15.794
0.324,0.879,0.518,135.864,-47.18,15.991,66.664,15.461
0.139,1.245,0.357,-179.321,-64.88,1.648,68.987,12.421
0.083,1.242,0.525,69.824,-57.617,-5.31,68.655,9.364
-0.102,0.586,0.515,152.588,-49.377,-15.442,63.553,5.776
-0.105,0.658,0.703,6.104,-69.458,-33.325,60.627,0.199
-0.223,0.712,0.576,-39.368,-85.999,-18.86,53.757,-5.02
-0.47,0.657,0.443,87.463,-72.205,-4.028,47.312,-14.657
-0.633,0.304,0.652,103.271,-58.838,-9.216,40.08,-23.263
-0.608,0.352,0.515,28.198,-22.766,-11.292,34.761,-32.975
-0.661,0.328,0.611,69.58,-7.324,-1.831,26.786,-40.656
-0.595,0.022,0.493,-42.114,8.85,3.174,16.588,-45.152
-0.631,0.841,0.422,58.777,32.898,-11.597,25.565,-44.292
-0.556,0.488,0.489,-83.679,36.316,4.395,27.926,-42.984
-0.41,1.018,0.422,68.298,50.354,13.062,39.712,-36.249
-0.355,0.723,0.545,14.221,74.341,27.283,48.578,-28.488
-0.134,0.737,0.684,-57.861,100.525,21.24,48.902,-21.705
0.009,0.837,0.574,-51.147,105.103,17.761,54.142,-12.568
0.098,0.832,0.633,-22.217,114.563,35.95,51.767,-5.502
0.271,0.854,0.43,-12.451,87.463,15.686,54.407,3.491
0.319,0.926,0.403,-26.245,63.477,0,57.993,9.87
0.331,0.816,0.345,0.549,13.672,10.254,58.775,14.728
0.245,0.845,0.237,-6.226,-2.38,-16.052,61.952,17.398
0.265,0.908,0.252,18.433,6.409,-5.005,64.119,17.377
0.325,0.928,0.368,0.732,-0.061,-2.563,64.412,17.504
aX,aY,aZ,gX,gY,gZ,Roll,Pitch
0.29,0.939,0.382,28.259,-4.272,-5.249,65.191,16.391
0.323,0.679,0.49,-87.708,-6.165,2.686,60.967,17.739
0.317,1.068,0.256,38.33,-27.283,20.142,61.613,17.791
0.369,1.383,0.37,51.331,-48.889,7.996,64.015,16.682
0.204,0.995,0.563,10.315,-18.433,-9.949,63.336,15.239
0.225,0.728,0.699,11.719,-56.458,-21.79,62.289,13.682
0.091,1.007,0.72,11.047,-90.82,-16.663,58.555,10.628
0.038,1.065,0.559,59.326,-93.872,-29.541,55.564,6.96
-0.223,0.745,0.666,37.231,-58.716,-48.95,53.236,1.692
-0.301,0.668,0.815,-8.118,-64.941,-40.588,51.33,-5.087
-0.444,0.584,0.717,45.105,-69.336,-17.944,46.468,-12.719
-0.596,0.353,0.599,49.622,-38.574,-7.812,36.254,-23.175
-0.612,0.292,0.577,14.343,-20.081,-5.127,29.609,-30.575
-0.643,0.346,0.565,10.132,1.465,-1.648,25.092,-38.168
-0.611,0.207,0.578,-101.135,33.02,1.099,19.496,-43.318
-0.608,0.386,0.577,78.796,32.41,13.977,20.03,-43.504
-0.4,0.927,0.417,-122.864,43.091,5.127,30.939,-38.558
-0.552,1.025,0.586,-160.767,21.118,29.48,39.732,-33.05
-0.452,0.669,0.493,-8.667,71.106,22.949,46.145,-28.854
-0.197,0.796,0.572,-54.749,103.638,8.789,52.58,-21.837
-0.051,0.94,0.561,-15.869,95.032,9.277,53.477,-17.044
-0.025,0.825,0.475,-6.897,96.558,15.442,55.486,-10.643
0.146,0.883,0.463,-32.41,93.079,8.057,58.939,-1.79
0.255,0.857,0.321,-21.606,72.083,-15.93,62.187,4.721
0.388,0.926,0.353,11.78,36.56,-0.793,62.92,11.242
0.262,1.004,0.306,-13.794,3.906,-3.723,64.043,14.93
0.244,0.617,-0.053,92.346,-22.583,3.967,66.549,18.037
0.255,0.927,0.245,4.639,11.23,-9.277,67.628,17.806
0.314,0.887,0.266,30.701,3.845,1.77,68.991,16.997
0.302,1,0.355,3.723,-3.174,-1.77,68.094,17.553
aX,aY,aZ,gX,gY,gZ,Roll,Pitch
0.349,0.855,0.37,-4.272,-2.441,-1.465,59.238,20.546
0.384,0.862,0.405,-36.621,-0.061,-4.822,58.14,21.265
0.321,0.831,0.303,-22.095,-29.541,21.729,59.382,20.851
0.21,0.947,0.122,-13.672,-2.441,24.414,63.487,18.883
0.349,1.104,0.543,150.085,-8.911,17.151,63.502,17.578
0.225,0.803,0.568,18.738,-59.631,4.578,62.823,15.463
0.155,0.756,0.442,-82.886,-54.749,5.737,61.994,13.278
0.016,0.6,0.394,81.848,-11.902,-5.005,57.439,11.091
0.054,0.913,0.508,-19.47,-16.479,-18.616,57.423,7.087
0.091,0.683,0.877,22.461,-37.292,-19.165,52.779,4.884
0.046,0.659,0.818,47.913,-44.739,-35.889,47.63,3.058
-0.092,0.09,0.959,79.346,-69.092,-41.992,36.561,1.437
-0.2,0.303,0.872,-4.456,-65.247,-36.804,26.187,-2.257
-0.448,0.363,0.812,19.531,-76.599,-24.719,21.852,-10.505
-0.605,0.321,0.587,3.967,-65.43,-16.113,17.111,-21.549
-0.72,0.363,0.491,2.686,-32.41,-4.944,21.681,-32.7
-0.722,0.381,0.478,21.179,-0.122,-2.502,22.549,-42.068
-0.711,0.244,0.455,-28.503,15.991,-2.197,20.97,-48.992
-0.636,0.59,0.573,134.399,68.787,3.662,24.697,-47.619
-0.577,0.237,0.714,-44.739,45.471,31.25,22.801,-44.919
-0.46,0.426,0.753,-15.076,29.419,34.729,23.445,-39.325
-0.417,0.718,0.627,-96.313,60.974,37.17,30.18,-32.231
-0.278,0.673,0.612,-98.206,94.604,48.95,32.589,-27.02
0.022,0.772,0.619,-86.914,94.604,20.874,42.29,-17.129
0.04,0.852,0.606,-28.381,91.858,8.545,49.831,-9.238
0.194,0.864,0.412,-49.927,78.247,-10.925,54.549,-0.326
0.373,0.942,0.405,-20.691,42.603,-20.813,58.07,8.944
0.364,1.023,0.386,33.264,-0.854,-16.907,60.84,13.314
0.291,0.861,0.235,5.249,-4.944,-5.127,62.904,17.149
0.393,0.807,0.226,35.095,4.639,-0.427,62.454,20.301
0.248,0.903,0.337,19.043,-7.69,-0.854,63.949,18.918
aX,aY,aZ,gX,gY,gZ,Roll,Pitch
0.255,0.812,0.35,24.719,-1.526,-3.052,63.965,18.392
0.32,0.952,0.299,-8.545,-13.306,13.428,63.689,18.296
0.149,0.981,0.252,-2.319,-16.602,24.719,66.652,14.169
0.153,0.899,0.295,29.419,-2.441,14.526,67.85,12.886
0.102,0.625,0.381,97.29,-11.536,10.62,67.602,11.163
0.045,1.359,0.264,-50.903,-36.926,-10.498,71.758,6.331
0.147,0.959,0.283,144.226,-53.955,-4.822,71.286,6.311
0.028,0.692,0.521,48.035,-55.054,-13.306,67.795,4.693
-0.08,0.42,0.725,116.943,-57.19,-45.959,62.338,2.063
-0.076,0.739,0.51,-85.144,-78.247,-40.161,54.046,0.308
-0.304,0.491,0.663,92.407,-82.092,-29.114,43.642,-7.304
-0.385,0.63,0.652,55.359,-75.867,-26.55,40.338,-13.878
-0.489,0.482,0.586,30.396,-62.927,-2.136,40.764,-20.464
-0.636,0.52,0.526,9.155,-51.086,13.367,35.018,-29.365
-0.685,0.378,0.426,14.771,-15.442,9.094,32.95,-36.444
-0.724,0.327,0.44,5.188,8.972,-1.953,27.961,-44.118
-0.687,0.432,0.398,-71.289,46.57,-8.362,26.898,-48.234
-0.6,0.589,0.546,17.09,46.326,-2.991,27.99,-47.146
-0.52,0.713,0.608,-117.615,40.649,18.311,32.609,-41.45
-0.438,0.575,0.25,-5.371,-19.592,20.752,38.733,-37.469
-0.484,0.701,0.601,-78.125,45.837,7.019,42.009,-32.015
-0.332,1.024,0.33,-93.811,104.004,-24.292,50.095,-26.848
-0.251,0.821,0.412,56.946,91.736,-10.742,54.925,-23.237
-0.039,0.853,0.441,2.502,86.121,2.258,58.305,-16.077
0.183,0.917,0.528,65.552,87.708,-3.174,63.97,-6.261
0.272,0.794,0.582,-5.493,61.096,7.812,59.81,2.414
0.327,0.77,0.517,-5.188,31.982,4.333,56.615,10.722
0.295,0.896,0.476,9.338,3.113,-7.69,55.018,15.149
0.269,0.793,0.353,13.367,-6.165,-13.611,55.309,17.09
0.395,0.877,0.394,16.541,5.676,0.671,57.029,18.868
0.358,0.836,0.447,3.479,5.859,0.061,57.988,19.152
0.361,0.745,0.358,34.912,-0.366,7.202,57.407,20.993
0.374,0.701,0.559,19.043,-5.127,10.01,53.903,22.365
aX,aY,aZ,gX,gY,gZ,Roll,Pitch
0.319,0.781,0.465,-3.235,4.456,-0.061,52.976,21.587
0.38,0.766,0.492,-29.907,0,2.686,51.749,22.096
0.256,0.877,0.341,-13.611,-7.874,7.202,53.839,20.076
0.247,0.872,0.349,9.399,4.028,1.099,58.256,18.068
0.258,0.792,0.429,20.691,0.793,19.653,59.161,17.238
0.246,0.977,0.476,15.137,-23.254,19.226,61.801,14.621
0.247,0.76,0.258,-33.142,-30.273,4.089,61.961,15.022
0.242,0.544,0.617,102.539,-44.617,-20.264,56.45,15.625
0.089,0.812,0.382,7.019,-66.65,-30.151,58.185,13.087
-0.002,0.692,0.623,24.231,-114.441,-0.122,55.002,9.678
-0.171,0.644,0.719,60.425,-92.834,-36.377,48.935,2.548
-0.278,0.733,0.589,42.114,-58.96,-21.729,50.917,-5.578
-0.443,0.483,0.708,64.087,-46.997,-9.399,42.502,-13.673
-0.5,0.392,0.657,44.861,-37.537,-16.479,36.784,-21.699
-0.581,0.384,0.589,19.348,-30.334,-15.869,32.596,-29.135
-0.646,0.387,0.588,6.714,-4.7,-2.991,26.23,-35.61
-0.612,0.257,0.555,-39.551,12.634,4.272,23.019,-40.084
-0.632,0.815,0.538,117.065,18.494,-0.305,28.779,-40.208
-0.596,0.316,0.585,-103.638,30.029,10.803,27.814,-40.83
-0.553,0.532,0.472,-21.057,30.579,21.606,30.823,-39.712
-0.566,0.803,0.338,-119.873,25.33,34.302,39.039,-36.837
-0.475,0.607,0.354,-51.025,56.274,35.156,38.845,-37.486
-0.293,0.906,0.371,-59.509,91.187,-17.151,49.492,-30.25
-0.166,0.881,0.5,-28.198,111.267,-12.146,55.864,-22.854
0.099,0.974,0.356,-44.922,112.61,-33.63,62.015,-12.661
0.282,1.082,0.382,-17.395,75.195,-17.029,67.252,-1.073
0.217,0.906,0.33,23.682,17.761,4.944,67.058,5.94
0.166,0.916,0.337,26.184,-1.587,-0.793,67.589,10.492
0.164,0.927,0.184,-19.592,-3.052,-7.263,68.797,11.648
0.181,1.044,0.193,49.744,16.663,-10.437,71.445,10.491
0.285,0.894,0.422,-0.793,8.118,-5.432,69.858,11.403
0.226,0.845,0.317,25.574,-0.671,2.93,69.241,12.465
0.232,0.855,0.356,6.897,2.93,0.671,66.465,13.468
aX,aY,aZ,gX,gY,gZ,Roll,Pitch
0.413,0.704,0.375,35.706,2.991,5.859,51.593,27.382
0.438,0.975,0.386,-31.189,1.282,-8.728,55.795,24.772
0.396,0.781,0.318,-16.357,-21.179,15.442,56.174,24.891
0.325,0.94,0.161,-32.715,0.732,16.785,59.518,23.465
0.298,0.878,0.253,47.058,8.85,3.052,62.808,21.25
0.343,0.897,0.389,44.434,-0.305,16.357,63.22,20.35
0.321,0.902,0.544,-44.922,-39.673,0.549,62.743,18.437
0.345,0.97,0.395,-49.316,-36.499,1.343,60.634,18.203
0.245,0.835,0.512,8.972,-68.237,3.174,58.288,17.218
0.151,0.873,0.449,-5.859,-49.133,-4.028,58.701,14.685
0.044,0.967,0.331,-15.625,-67.688,23.987,62.957,11.067
-0.109,0.97,0.571,155.823,-86.182,1.587,62.562,4.634
-0.27,0.729,0.699,50.842,-64.209,-31.189,59.811,-2.567
-0.363,0.357,0.712,27.161,-66.589,-25.33,51.36,-10.384
-0.516,0.528,0.556,-0.916,-59.937,-5.188,42.359,-19.151
-0.582,0.583,0.486,36.621,-45.593,2.991,36.192,-27.727
-0.67,0.425,0.492,34.119,-44.067,7.141,31.454,-35.949
-0.795,0.369,0.406,17.029,-25.635,1.831,30.669,-43.295
-0.83,0.324,0.357,15.381,-0.732,4.456,26.859,-49.741
-0.846,0.153,0.419,39.429,13.611,8.911,19.68,-56.188
-0.713,0.564,0.364,-102.295,56.458,-24.536,21.736,-56.669
-0.649,0.283,0.467,-22.583,42.786,14.771,21.076,-55.563
-0.552,0.568,0.454,-52.124,65.063,4.822,25.791,-50.006
-0.382,0.772,0.48,-67.566,78.369,23.987,37.047,-39.254
-0.251,0.733,0.386,-177.979,125.305,11.475,42.605,-31.817
0.093,1.158,0.414,-44.495,103.882,-17.517,57.608,-16.583
0.118,0.91,0.263,6.104,87.708,-2.991,65.873,-6.189
0.265,0.952,0.267,-20.142,72.449,-17.639,70.217,3.224
0.337,0.977,0.288,5.615,39.856,-7.996,69.72,11
0.29,1.062,0.202,16.724,10.132,-7.69,69.799,14.055
0.245,0.913,0.161,9.949,1.77,-13.672,69.475,15.824
0.391,0.931,0.274,14.954,4.822,1.16,68.044,17.55
0.284,0.82,0.287,2.93,-0.305,-6.348,67.787,17.478
aX,aY,aZ,gX,gY,gZ,Roll,Pitch
0.41,0.871,0.325,26.489,4.517,-2.014,64.418,19.822
0.43,0.907,0.332,-46.204,-2.563,-2.38,61.164,22.071
0.409,0.837,0.322,-5.005,-9.338,12.146,59.942,22.717
0.422,1.002,0.365,-59.143,-23.499,19.653,59.329,23.418
0.292,1.049,0.17,18.311,-43.945,48.645,62.727,21.332
0.038,0.511,0.337,245.361,-29.846,13.672,63.887,17.865
0.069,0.474,0.801,-52.612,-62.866,-37.048,58.44,13.331
0.1,1.09,0.511,15.32,-83.252,-7.874,58.874,7.857
-0.088,1.214,0.433,63.416,-86.67,-12.878,57.616,1.757
-0.349,0.492,0.653,51.758,-89.355,-3.662,53.567,-3.779
-0.486,0.565,0.718,65.491,-57.556,-30.029,53.828,-11.408
-0.574,0.479,0.538,22.217,-45.227,-24.536,44.687,-22.52
-0.631,0.434,0.507,38.696,-24.78,-3.54,31.926,-33.22
-0.714,0.374,0.591,27.771,-11.047,-2.136,28.826,-38.777
-0.708,0.362,0.512,18.005,-4.639,7.385,25.919,-44.134
-0.756,0.494,0.39,-67.749,29.053,3.967,25.759,-47.19
-0.556,0.523,0.408,-172.668,53.467,-12.451,27.754,-46.585
-0.408,0.781,0.473,-96.069,59.021,-2.319,35.631,-40.912
-0.365,0.86,0.36,-1.526,75.745,-2.502,45.111,-33.756
-0.115,0.6,0.649,56.396,105.347,52.368,49.282,-23.305
-0.05,0.581,0.534,-151.428,86.609,32.654,51.756,-15.116
0.169,1.077,0.425,-50.903,92.59,-12.451,57.304,-5.573
0.174,0.808,0.497,92.407,68.42,6.592,55.419,2.753
0.319,0.766,0.555,2.38,34.912,-9.277,56.945,9.146
0.2,1.023,0.369,-28.625,0.916,6.531,60.976,11.853
0.233,0.896,0.292,32.837,6.531,-3.662,60.855,13.396
0.341,0.87,0.456,23.254,8.362,3.052,60.667,15.55
0.222,0.843,0.359,10.498,5.127,-8.789,63.883,14.255
aX,aY,aZ,gX,gY,gZ,Roll,Pitch
0.401,0.936,0.556,11.475,2.686,1.343,59.966,16.998
0.404,0.916,0.509,-29.602,-2.808,0.427,56.873,18.744
0.333,0.868,0.505,-20.813,-37.17,29.175,56.461,18.558
0.325,0.46,0.475,-40.466,-31.006,-1.892,51.653,21.154
0.22,0.928,0.387,40.833,-12.756,16.296,54.381,19.178
0.284,0.89,0.64,-42.908,-41.992,-1.16,53.6,17.297
0.28,1.43,0.326,221.008,-70.374,22.156,60.027,15.01
0.026,0.834,0.463,-174.683,-75.989,-26.855,64.025,10.271
-0.144,0.851,0.657,22.888,-115.112,-2.38,61.953,5.64
-0.307,0.507,0.604,124.023,-103.455,-35.156,60.432,-1.993
-0.59,0.386,0.565,55.664,-71.777,-26.611,45.842,-16.394
-0.711,0.331,0.432,15.32,-47.119,-8.85,35.992,-29.728
-0.792,0.265,0.413,17.029,-13.062,-1.282,25.431,-43.772
-0.812,0.159,0.387,48.401,6.836,0.305,18.484,-53.765
-0.757,0.454,0.447,-211.792,51.88,-14.099,19.069,-56.042
-0.642,0.2,0.583,-47.729,34.729,13.367,17.05,-54.741
-0.57,0.604,0.434,-77.332,57.312,8.911,22.986,-50.044
-0.446,0.672,0.644,-52.002,75.867,14.221,31.045,-40.215
-0.163,0.784,0.521,-65.002,106.934,13.855,38.487,-30.111
0.06,0.975,0.583,-100.098,110.474,17.395,51.069,-16.678
0.329,1.157,0.645,-44.861,131.592,-18.433,56.195,-2.924
0.261,0.927,0.468,5.981,48.34,-7.874,59.436,6.263
0.3,0.869,0.348,48.828,-9.155,-12.451,60.159,12.105
0.232,0.903,0.314,8.301,14.465,-13.916,61.431,14.804
0.34,0.831,0.398,7.446,7.935,0.61,61.693,16.397
0.303,0.849,0.394,4.517,5.127,-0.61,61.583,17.402
0.338,0.857,0.369,51.392,-1.16,5.188,60.978,17.946
0.375,0.886,0.553,-36.316,1.953,-5.249,57.45,19.495
0.282,0.835,0.286,1.953,-0.977,-2.686,58.971,18.935
aX,aY,aZ,gX,gY,gZ,Roll,Pitch
0.439,0.741,0.389,4.456,2.869,1.77,57.107,21.27
0.46,0.892,0.376,-32.166,-3.174,-2.441,56.317,22.712
0.419,0.835,0.365,-11.597,-14.648,7.324,57.095,24.012
0.379,0.883,0.268,-17.09,-27.344,7.568,56.72,25.065
0.29,0.937,0.275,11.108,-13.062,19.226,60.444,22.321
0.324,0.913,0.456,28.687,-15.442,31.128,61.183,20.294
0.214,0.425,0.358,-228.638,-47.546,3.052,60.104,19.349
0.106,0.947,0.291,175.171,-71.716,12.817,62.66,14.916
-0.018,0.725,0.663,60.913,-66.772,-16.174,58.069,10.165
-0.104,0.711,0.646,-140.808,-75.256,-37.964,54.973,3.296
-0.181,1.04,0.411,126.526,-80.994,-10.132,59.442,-2.851
-0.413,0.262,0.665,50.293,-71.228,-19.592,47.706,-11.161
-0.593,0.369,0.615,29.48,-48.096,0.916,41.731,-21.155
-0.678,0.317,0.598,10.315,-31.128,-1.77,33.937,-31.602
-0.68,0.249,0.544,12.939,-17.7,8.423,19.459,-41.191
-0.718,0.196,0.53,11.536,8.484,-4.028,17.825,-46.301
-0.685,0.171,0.458,-11.78,49.011,20.447,14.972,-49.909
-0.597,0.68,0.472,-105.591,65.979,1.526,21.168,-48.332
-0.425,0.547,0.577,-74.707,58.716,31.372,26.726,-43.165
-0.301,0.553,0.62,-86.243,89.783,43.762,33.718,-34.837
0.144,1.24,0.28,-78.613,120.056,-42.969,52.984,-18.171
0.183,0.943,0.335,-23.682,119.873,-33.142,60.539,-6.09
0.418,0.926,0.288,6.104,68.97,-18.25,66.59,6.372
0.361,0.929,0.176,7.996,42.236,-25.452,69.072,14.809
0.381,0.898,0.216,-6.287,-0.122,0,65.524,19.299
0.351,0.927,0.191,1.465,-3.845,-10.986,64.639,21.782
0.425,0.927,0.212,10.376,16.479,-4.456,65.033,21.953
0.387,0.848,0.213,5.066,-4.944,1.465,64.016,22.682
0.335,0.915,0.23,45.349,-1.648,4.883,64.551,21.966
aX,aY,aZ,gX,gY,gZ,Roll,Pitch