aX,aY,aZ,gX,gY,gZ,Roll,Pitch
0.862,0.249,-0.449,4.639,1.526,1.892,14.362,59.238
0.855,0.269,-0.464,-2.93,1.709,-1.221,14.914,58.563
0.864,0.28,-0.503,-0.183,-0.183,-2.319,15.169,57.797
0.889,0.182,-0.41,22.156,-2.808,2.869,14.033,59.146
0.863,0.259,-0.433,-4.7,-1.648,4.883,14.194,59.266
0.852,0.305,-0.429,5.127,-0.305,2.869,14.752,59.402
0.858,0.276,-0.43,3.845,4.211,6.287,14.835,60.164
0.839,0.286,-0.435,2.869,8.24,8.179,16.398,58.864
0.819,0.318,-0.588,-10.62,18.982,15.808,17.072,56.561
0.795,0.332,-0.512,4.456,21.79,6.47,17.478,55.116
0.739,0.35,-0.611,-14.16,19.592,12.817,18.482,51.918
0.716,0.35,-0.69,-12.878,37.842,15.259,19.108,48.096
0.643,0.33,-0.743,-14.526,49.194,13.611,19.433,44.978
0.53,0.313,-0.79,-10.01,50.659,10.681,19.152,39.973
0.423,0.311,-0.881,-12.329,45.654,7.935,18.62,34.485
0.314,0.329,-0.905,-10.132,43.457,8.606,18.524,28.233
0.207,0.283,-0.933,-5.31,35.583,5.737,17.986,21.614
0.131,0.259,-0.961,-4.395,30.212,4.761,17.13,15.544
0.063,0.261,-0.966,-2.502,26.672,2.747,16.447,10.307
-0.029,0.249,-1.011,-4.272,27.71,2.625,15.13,5.292
-0.097,0.235,-1.006,-1.526,37.537,2.991,14.268,0.952
-0.201,0.19,-0.975,-10.437,40.71,2.075,13.25,-3.729
-0.298,0.192,-0.97,-11.902,47.302,2.991,12.169,-8.774
-0.401,0.166,-0.888,-1.404,45.898,3.479,11.154,-14.292
-0.503,0.152,-0.872,6.226,43.03,7.08,10.017,-20.424
-0.585,0.165,-0.794,13.55,42.236,6.653,9.695,-26.482
-0.672,0.156,-0.692,5.554,40.894,4.456,9.316,-33.161
-0.746,0.159,-0.606,11.292,36.255,2.808,9.249,-39.589
-0.799,0.142,-0.567,11.108,28.809,4.761,9.145,-45.736
-0.9,0.081,-0.5,-1.831,33.081,2.197,7.837,-52.107
-0.887,0.151,-0.439,-4.822,39.185,-8.362,7.702,-56.815
-0.891,0.219,-0.31,0.916,22.339,-7.446,8.604,-61.206
-0.927,0.197,-0.292,0.732,8.362,-0.488,9.386,-65.12
-0.919,0.175,-0.238,4.7,-0.61,-2.136,10.916,-67.812
-0.943,0.186,-0.383,6.775,-13.794,-1.099,11.313,-68.524
-0.865,0.18,-0.298,10.986,-19.348,2.502,10.841,-68.802
-0.91,0.135,-0.45,10.437,-19.104,4.456,9.859,-67.241
-0.846,0.206,-0.457,8.85,-27.344,-5.371,10.261,-64.012
-0.84,0.203,-0.545,-1.465,-21.973,-2.869,10.565,-61.324
-0.763,0.235,-0.547,11.292,-22.827,-5.31,11.261,-57.448
-0.715,0.209,-0.63,13.123,-35.156,-5.249,12.52,-53.524
-0.677,0.204,-0.687,12.878,-28.32,-3.479,12.49,-49.537
-0.586,0.263,-0.745,10.925,-35.278,-9.216,13.536,-44.761
-0.477,0.358,-0.765,10.071,-43.701,-12.695,15.435,-39.194
-0.398,0.37,-0.858,10.437,-45.654,-12.695,17.756,-33.088
-0.337,0.417,-0.927,14.404,-26.123,-10.254,20.554,-26.645
-0.236,0.438,-0.852,16.907,-23.804,-7.202,23.171,-21.102
-0.146,0.448,-0.875,19.775,-28.87,-8.606,24.42,-16.013
-0.048,0.491,-0.847,6.348,-36.072,-11.719,26.604,-11.023
0.055,0.529,-0.865,33.447,-40.039,-16.724,28.862,-5.442
0.154,0.552,-0.812,18.433,-39.246,-18.616,30.735,0.219
0.289,0.592,-0.757,1.221,-44.8,-21.912,33.172,6.535
0.407,0.478,-0.776,18.433,-45.959,-23.743,32.828,13.184
0.518,0.521,-0.689,10.498,-44.739,-19.714,32.781,20.225
0.604,0.538,-0.64,3.662,-33.508,-25.391,32.126,27.016
0.697,0.502,-0.591,-1.526,-23.437,-17.944,30.248,33.366
0.702,0.455,-0.537,-4.578,-4.395,-10.742,29.793,38.42
0.752,0.414,-0.504,1.16,-16.418,-9.583,28.124,42.878
0.783,0.388,-0.462,1.282,-22.644,-7.568,26.01,47.015
0.836,0.32,-0.45,9.705,-34.668,-17.578,23.414,50.76
0.87,0.341,-0.426,-0.732,-14.648,-12.451,21.421,54.043
0.881,0.342,-0.368,-0.977,-1.953,-3.845,20.207,56.856
0.891,0.278,-0.352,2.869,-4.15,-4.395,18.494,59.536
0.884,0.301,-0.359,20.935,-3.479,1.16,18.204,60.888
aX,aY,aZ,gX,gY,gZ,Roll,Pitch
0.89,0.304,-0.352,7.69,1.77,0.488,17.75,62.025
0.878,0.299,-0.345,-12.634,2.747,1.282,17.211,62.583
0.88,0.292,-0.38,-0.61,4.7,0.122,17.409,62.118
0.871,0.299,-0.372,-2.319,0.549,4.7,17.419,61.919
0.87,0.293,-0.401,-0.122,4.456,5.066,17.265,61.386
0.866,0.323,-0.443,-13.794,12.329,14.404,17.477,60.148
0.833,0.295,-0.503,-5.981,27.527,10.803,17.467,58.568
0.79,0.352,-0.526,-0.61,35.645,10.315,18.185,56.076
0.739,0.337,-0.599,0.854,31.311,10.559,18.822,52.805
0.695,0.341,-0.674,-2.502,31.555,13.611,19.1,49.005
0.579,0.371,-0.773,-7.141,32.776,18.982,20.226,43.74
0.441,0.365,-0.848,-1.77,43.64,14.16,20.44,37.302
0.333,0.381,-0.878,-8.789,47.241,13.245,21.12,30.392
0.214,0.363,-0.891,-3.052,38.33,9.644,21.628,22.965
0.112,0.361,-0.919,-6.531,31.616,8.057,21.653,16.024
0.008,0.374,-0.949,-7.141,34.546,6.409,21.804,9.641
-0.085,0.311,-0.953,3.113,37.598,6.409,20.74,3.587
-0.179,0.298,-0.931,-13.428,39.612,2.869,19.694,-2.081
-0.276,0.298,-0.944,-9.583,32.654,1.526,18.569,-7.601
-0.366,0.284,-0.907,0.244,33.508,5.005,17.217,-13.012
-0.458,0.246,-0.867,-2.991,35.583,7.202,16.235,-18.515
-0.544,0.203,-0.821,6.653,37.17,4.028,14.795,-24.026
-0.621,0.264,-0.738,1.526,39.856,7.019,14.394,-29.748
-0.696,0.209,-0.682,10.071,33.752,12.939,13.376,-35.567
-0.759,0.17,-0.56,5.859,31.86,7.019,12.434,-41.838
-0.8,0.212,-0.551,5.798,18.616,-2.686,12.582,-47.103
-0.818,0.226,-0.512,7.812,13.184,4.028,12.013,-51.489
-0.85,0.208,-0.399,6.409,15.625,1.465,12.09,-55.951
-0.853,0.18,-0.402,14.221,5.005,2.136,12.243,-58.446
-0.864,0.209,-0.419,-0.61,-1.404,-2.258,12.217,-60.464
-0.856,0.207,-0.413,8.728,-8.179,-2.319,11.97,-61.983
-0.818,0.217,-0.537,-3.601,-26.672,-10.193,11.997,-60.111
-0.746,0.312,-0.596,-5.92,-36.194,-12.329,13.864,-56.411
-0.644,0.383,-0.653,18.127,-48.584,-12.817,16.523,-51.149
-0.566,0.443,-0.663,-0.732,-44.8,-11.292,20.108,-44.743
-0.451,0.405,-0.799,1.038,-46.875,-12.207,23.058,-37.642
-0.309,0.521,-0.847,4.456,-50.11,-14.038,26.228,-29.784
-0.132,0.487,-0.878,2.869,-47.607,-12.634,27.908,-21.572
-0.023,0.51,-0.847,15.076,-45.715,-18.86,28.845,-13.262
0.127,0.561,-0.865,4.089,-42.542,-22.4,31.052,-4.791
0.251,0.557,-0.822,25.94,-35.706,-18.494,31.743,3.184
0.362,0.555,-0.765,25.757,-31.189,-19.714,32.885,10.274
0.465,0.625,-0.7,-7.324,-33.325,-21.484,34.258,17.162
0.517,0.543,-0.658,10.498,-32.715,-12.024,34.256,23.172
0.598,0.574,-0.646,6.897,-22.949,-8.606,34.197,28.355
0.646,0.535,-0.536,2.441,-20.691,-10.864,34.007,33.127
0.724,0.5,-0.5,10.986,-22.095,-16.602,32.246,38.015
0.768,0.48,-0.448,11.841,-23.254,-19.409,31.088,42.523
0.844,0.505,-0.377,-5.249,-17.334,-18.799,29.897,47.347
0.853,0.424,-0.319,4.395,-17.151,-14.893,28.028,51.685
0.908,0.325,-0.3,-0.488,-12.268,-14.343,25.308,56.208
0.935,0.395,-0.276,-13.794,4.822,-6.653,23.685,59.519
0.901,0.304,-0.241,11.23,-1.953,-2.563,21.021,62.89
0.9,0.327,-0.256,-3.967,-0.671,-2.808,19.596,64.65
0.906,0.254,-0.265,14.526,1.709,0.854,18.682,65.653
0.904,0.329,-0.274,29.663,-11.23,10.132,17.911,66.161
aX,aY,aZ,gX,gY,gZ,Roll,Pitch
0.898,0.338,-0.252,6.592,0.61,0.977,18.365,65.711
0.907,0.341,-0.245,-32.41,5.005,-1.099,18.535,65.705
0.898,0.308,-0.311,5.493,4.333,3.052,19.255,64.722
0.895,0.324,-0.291,4.272,10.254,5.493,19.206,64.568
0.861,0.404,-0.363,-12.024,25.208,20.508,20.107,62.758
0.824,0.364,-0.42,-14.221,26.489,16.052,20.501,60.48
0.791,0.424,-0.479,-8.972,25.146,13.55,22.204,57.224
0.74,0.427,-0.558,-1.892,30.945,17.761,23.638,52.872
0.671,0.436,-0.626,-5.798,32.104,18.372,24.179,48.721
0.581,0.45,-0.698,-7.446,34.241,13.672,25.438,43.523
0.491,0.481,-0.786,-9.583,39.124,14.832,26.197,37.69
0.358,0.462,-0.848,-16.479,49.5,18.982,26.737,31.145
0.257,0.425,-0.863,-10.071,48.523,16.052,26.704,24.651
0.117,0.413,-0.911,-14.038,42.725,12.268,26.184,17.645
-0.01,0.396,-0.958,-11.963,43.091,13.367,24.904,10.335
-0.154,0.309,-0.91,2.014,47.18,13.062,22.933,3.036
-0.254,0.31,-0.938,-8.545,44.556,8.85,20.946,-4.324
-0.383,0.31,-0.863,-5.371,45.227,10.803,19.432,-11.594
-0.508,0.265,-0.808,-4.822,43.701,9.277,17.655,-19.264
-0.595,0.239,-0.726,-1.038,40.649,9.338,16.625,-26.294
-0.683,0.251,-0.679,-2.991,35.645,2.136,15.796,-33.665
-0.716,0.286,-0.574,-3.784,28.625,1.831,15.526,-40.059
-0.778,0.202,-0.579,1.038,18.433,5.31,14.538,-45.338
-0.82,0.201,-0.562,9.766,17.517,-3.906,13.775,-49.361
-0.796,0.251,-0.472,-19.592,-2.319,1.404,13.898,-52.566
-0.825,0.238,-0.516,2.441,-0.61,1.526,13.025,-54.358
-0.762,0.214,-0.438,1.465,-18.799,-1.282,13.485,-55.727
-0.698,0.292,-0.688,18.738,-40.039,-1.526,14.905,-52.846
-0.607,0.219,-0.694,25.757,-40.161,-8.606,14.514,-48.887
-0.481,0.229,-0.769,7.69,-42.603,-30.762,14.713,-42.744
-0.361,0.393,-0.929,5.005,-57.922,-18.494,16.799,-33.207
-0.201,0.385,-0.87,2.869,-47.302,-20.447,18.56,-25.334
-0.062,0.403,-0.929,14.587,-45.593,-20.264,21.049,-16.319
0.095,0.449,-0.812,14.282,-54.382,-15.137,24.499,-7.728
0.246,0.479,-0.976,1.343,-54.199,-6.042,25.57,1.123
0.332,0.451,-0.836,18.372,-37.659,-4.7,26.308,8.726
0.436,0.492,-0.778,11.841,-28.564,-12.756,27.603,15.923
0.53,0.521,-0.658,27.954,-33.203,-11.047,28.371,22.178
0.643,0.526,-0.59,8.423,-40.1,-26.123,29.912,29.1
0.729,0.484,-0.5,4.7,-35.645,-29.968,30.442,35.846
0.816,0.473,-0.421,10.803,-32.837,-26.855,29.957,42.625
0.871,0.344,-0.347,20.142,-22.217,-18.25,27.055,49.569
0.856,0.253,-0.307,3.357,-16.479,-14.526,23.179,55.924
0.932,0.355,-0.252,7.385,-14.038,-19.836,20.961,60.737
0.927,0.258,-0.212,7.935,-9.46,-2.319,17.845,65.333
0.968,0.232,-0.163,-3.601,-0.854,-2.258,16.104,68.641
0.939,0.267,-0.164,-15.564,-0.061,4.15,16.103,70.099
0.968,0.24,-0.154,9.583,-7.629,4.944,14.457,72.295
aX,aY,aZ,gX,gY,gZ,Roll,Pitch
0.947,0.282,-0.192,7.202,0.793,1.038,14.74,72.26
0.946,0.274,-0.142,-19.897,6.409,-3.296,15.416,71.831
0.929,0.257,-0.214,-4.639,8.789,3.967,15.292,71.526
0.921,0.291,-0.257,-8.484,17.578,10.132,16.094,69.94
0.905,0.335,-0.275,0.488,22.095,12.024,16.913,68.484
0.879,0.354,-0.364,-7.935,31.25,19.897,18.032,65.416
0.825,0.36,-0.415,-7.202,30.457,16.968,19.585,62.019
0.775,0.41,-0.512,-12.207,29.175,16.663,21.369,57.684
0.702,0.453,-0.578,0.61,31.25,15.32,23.139,52.454
0.641,0.428,-0.677,-10.864,32.104,16.357,24.254,47.096
0.543,0.446,-0.75,-8.484,38.269,17.761,25.363,41.046
0.44,0.457,-0.826,-14.587,47.424,19.104,25.955,34.818
0.317,0.427,-0.869,-16.174,56.58,16.235,25.551,28.457
0.175,0.358,-0.91,-16.418,50.476,13.611,24.717,21.456
0.027,0.36,-0.98,-8.911,50.964,11.169,23.344,13.727
-0.133,0.263,-0.96,-9.216,56.641,11.108,20.625,5.545
-0.293,0.276,-0.906,-3.418,54.321,7.812,18.467,-3.242
-0.417,0.226,-0.833,5.371,49.438,8.972,16.624,-11.988
-0.53,0.298,-0.807,-3.418,38.147,7.874,15.762,-20.551
-0.608,0.236,-0.709,2.686,36.133,7.08,15.474,-28.419
-0.679,0.188,-0.656,-5.066,26.062,-0.183,14.214,-35.337
-0.708,0.239,-0.622,-0.977,10.925,-1.221,14.318,-40.511
-0.735,0.224,-0.648,0.122,4.944,-3.723,13.165,-44.479
-0.73,0.259,-0.645,-3.174,-1.16,-1.465,13.333,-46.278
-0.711,0.234,-0.601,-3.113,-4.944,-0.305,14.025,-46.976
-0.651,0.231,-0.685,2.747,-32.166,-8.057,13.922,-45.811
-0.558,0.239,-0.683,-13.245,-44.067,-6.958,14.503,-43.563
-0.459,0.328,-0.857,16.052,-48.401,-7.996,15.614,-38.331
-0.362,0.426,-0.793,23.865,-46.021,-3.601,18.604,-31.932
-0.202,0.329,-0.896,34.18,-53.467,-6.348,20.192,-24.385
-0.049,0.477,-0.853,16.846,-51.27,-19.592,23.64,-16.001
0.144,0.591,-0.868,26.123,-61.951,-22.888,27.911,-6.922
0.247,0.615,-0.822,18.616,-50.659,-17.944,30.307,2.013
0.366,0.588,-0.739,20.447,-33.63,-19.47,34.066,10.064
0.494,0.631,-0.662,-4.822,-26.123,-14.771,36.026,17.666
0.584,0.577,-0.56,23.193,-35.583,-24.475,36.506,24.669
0.654,0.636,-0.513,19.592,-27.893,-20.996,36.858,31.163
0.755,0.484,-0.475,6.165,-28.198,-21.545,34.98,37.766
0.799,0.451,-0.38,4.517,-24.353,-24.292,32.337,44.045
0.849,0.444,-0.335,4.15,-22.339,-18.982,29.933,49.207
0.91,0.373,-0.264,-10.986,-27.954,-20.447,25.833,55.502
0.943,0.364,-0.185,-6.836,-18.555,-16.968,23.852,60.21
0.961,0.225,-0.195,16.785,-14.709,-2.319,20.331,64.938
0.935,0.336,-0.169,1.831,6.531,0.488,18.686,67.777
0.943,0.235,-0.123,1.221,7.874,1.404,16.804,70.475
0.959,0.27,-0.151,5.493,1.465,1.587,15.479,71.873
0.94,0.252,-0.125,17.09,-3.54,4.089,15.977,71.926
aX,aY,aZ,gX,gY,gZ,Roll,Pitch
0.946,0.271,-0.133,9.399,0.305,2.197,15.05,72.999
0.956,0.28,-0.131,-33.752,10.559,-2.319,15.619,72.456
0.945,0.298,-0.235,-10.376,18.86,12.695,16.011,71.517
0.912,0.34,-0.296,-15.198,33.569,22.461,17.2,69.165
0.872,0.357,-0.399,-16.785,31.921,17.456,18.391,65.768
0.775,0.356,-0.575,-10.498,43.091,18.921,19.514,60.008
0.697,0.464,-0.646,-4.211,54.077,18.677,21.882,53.107
0.579,0.417,-0.745,-2.869,54.688,18.555,22.982,45.699
0.44,0.394,-0.834,-11.108,53.589,18.25,23.525,37.539
0.29,0.414,-0.888,-9.583,58.472,13.611,24.515,29.52
0.159,0.368,-0.926,-7.202,55.298,9.888,23.313,21.382
-0.01,0.343,-0.959,-7.202,52.734,11.23,22.258,12.654
-0.154,0.299,-0.95,-12.817,52.124,12.207,20.885,4.085
-0.278,0.271,-0.905,-15.869,51.27,0,18.874,-4.101
-0.426,0.232,-0.886,-11.23,47.668,6.47,16.786,-12.639
-0.538,0.181,-0.785,-7.08,47.058,5.615,14.545,-20.884
-0.637,0.145,-0.707,2.808,38.574,2.747,12.373,-29.035
-0.729,0.138,-0.682,1.526,37.354,0.977,10.255,-36.591
-0.761,0.17,-0.514,-1.465,30.09,-0.122,9.506,-43.971
-0.846,0.235,-0.579,2.808,11.963,2.747,10.075,-49.088
-0.814,0.189,-0.49,4.028,1.343,-2.441,10.688,-52.909
-0.817,0.191,-0.49,5.676,-2.319,0.122,11.546,-55.593
-0.808,0.164,-0.498,3.235,-6.653,-0.671,11.37,-56.186
-0.793,0.199,-0.564,15.198,-30.396,4.333,11.005,-56.077
-0.7,0.251,-0.622,0.183,-32.898,-3.601,11.959,-53.363
-0.613,0.218,-0.646,11.292,-41.382,-7.141,12.581,-49.658
-0.515,0.304,-0.761,15.442,-46.997,-9.277,14.769,-43.417
-0.365,0.24,-0.896,23.865,-54.382,-5.676,15.483,-35.312
-0.23,0.307,-0.97,15.991,-52.002,-16.113,16.118,-26.581
-0.112,0.476,-0.821,13.733,-45.471,-12.146,19.927,-18.307
0.073,0.408,-0.925,0.671,-49.133,-7.568,21.311,-9.264
0.248,0.436,-0.902,27.161,-59.509,-15.93,24.206,-0.294
0.353,0.579,-0.846,-4.211,-43.762,-22.827,28.214,8.047
0.452,0.5,-0.776,10.01,-19.043,-2.197,27.925,15.913
0.551,0.491,-0.662,9.583,-26.672,-7.08,29.349,23.067
0.6,0.509,-0.63,-4.211,-37.659,-7.629,30.644,28.643
0.691,0.451,-0.592,8.728,-37.964,-13.367,29.051,34.81
0.748,0.452,-0.577,-3.174,-18.921,-3.174,28.034,39.779
0.802,0.344,-0.421,9.705,-26.794,-18.311,25.959,45.113
0.875,0.422,-0.388,24.841,-34.912,-35.95,24.318,50.292
0.924,0.272,-0.283,14.648,-26.428,-24.78,21.696,56.256
0.983,0.266,-0.19,-3.54,-16.174,-15.442,18.905,62.963
0.915,0.304,-0.15,3.906,-3.845,-5.432,18.254,66.345
0.863,0.285,-0.137,-3.174,1.038,-1.099,16.684,69.737
0.963,0.221,-0.164,8.728,2.93,0,15.904,71.395
0.97,0.203,-0.138,4.578,1.709,-0.366,15.091,72.469
0.982,0.236,-0.133,8.24,-2.563,1.892,13.898,73.695
aX,aY,aZ,gX,gY,gZ,Roll,Pitch
0.953,0.219,-0.163,10.01,0.244,2.258,12.661,74.628
0.965,0.247,-0.162,-27.954,9.399,-2.686,13.016,74.357
0.951,0.224,-0.198,6.592,5.371,2.502,13.343,73.578
0.954,0.224,-0.197,6.897,8.606,5.066,13.218,73.077
0.933,0.302,-0.285,-3.601,28.625,21.484,14.342,71.074
0.89,0.317,-0.359,-19.775,36.255,30.273,15.408,68.235
0.817,0.363,-0.488,-10.925,48.035,23.804,17.461,63.477
0.742,0.451,-0.521,-16.357,41.077,16.724,20.835,57.116
0.668,0.387,-0.65,-21.729,31.494,16.907,22.244,50.999
0.572,0.405,-0.78,-19.897,32.898,12.695,23.396,43.79
0.493,0.37,-0.857,-10.559,50.537,10.376,23.309,37.401
0.363,0.346,-0.945,-11.902,63.354,9.277,21.384,30.454
0.194,0.292,-0.928,-7.874,63.599,8.85,20.071,23.212
0.044,0.28,-0.944,-3.601,52.673,1.038,18.572,15.703
-0.148,0.257,-0.995,-8.972,52.185,11.963,17.024,6.485
-0.267,0.235,-0.945,-10.681,58.105,7.935,15.578,-2.568
-0.41,0.154,-0.828,-2.136,52.124,6.836,13.721,-11.541
-0.558,0.221,-0.824,13.611,45.288,-1.709,12.698,-20.526
-0.629,0.177,-0.718,25.635,40.833,8.118,11.698,-28.689
-0.699,0.252,-0.613,5.798,28.442,4.517,12.062,-36.619
-0.751,0.217,-0.642,8.728,19.653,2.747,12.717,-42.005
-0.765,0.201,-0.498,2.075,20.508,2.197,12.677,-47.424
-0.811,0.206,-0.513,2.808,2.319,-0.854,13.047,-51.228
-0.826,0.221,-0.569,1.526,-4.089,0.488,12.352,-52.967
-0.781,0.245,-0.548,1.587,-12.695,1.099,12.831,-54.136
-0.729,0.199,-0.575,12.268,-24.963,-2.258,12.754,-52.991
-0.674,0.236,-0.664,7.874,-36.865,-6.226,13.256,-50.025
-0.616,0.29,-0.752,14.526,-36.438,-10.681,14.387,-45.842
-0.528,0.329,-0.777,9.583,-29.236,-7.629,15.656,-40.684
-0.472,0.326,-0.834,13.733,-21.362,-8.24,17.285,-35.18
-0.383,0.389,-0.831,11.23,-24.109,-8.484,19.491,-30.005
-0.269,0.428,-0.827,12.268,-40.527,-7.935,21.892,-24.738
-0.118,0.445,-0.847,18.005,-45.837,-15.076,24.016,-18.56
0.068,0.491,-0.89,15.381,-50.72,-22.095,26.819,-10.4
0.146,0.583,-0.865,10.925,-34.668,-13.306,29.556,-2.512
0.28,0.511,-0.775,14.771,-36.804,-12.39,30.861,5.444
0.359,0.615,-0.762,10.742,-37.842,-12.39,32.913,12.14
0.467,0.616,-0.619,16.357,-36.499,-12.39,35.431,18.162
0.579,0.567,-0.61,12.024,-34.485,-20.691,35.504,25.059
0.67,0.59,-0.572,-0.366,-24.109,-21.606,35.925,30.635
0.723,0.511,-0.466,2.991,-27.283,-18.005,34.452,37.156
0.801,0.45,-0.388,5.737,-28.625,-24.841,31.619,43.346
0.86,0.439,-0.332,4.517,-22.583,-23.254,29.456,48.982
0.902,0.331,-0.279,-2.808,-21.057,-18.066,25.689,55.383
0.906,0.354,-0.232,10.986,-8.606,-13.794,23.156,60.047
0.949,0.292,-0.19,2.136,-8.423,-9.705,20.628,64.143
0.936,0.254,-0.179,2.319,-3.296,-5.676,17.965,67.718
0.944,0.266,-0.184,7.812,7.751,1.099,17.001,69.368
0.944,0.253,-0.143,9.46,-0.977,1.282,15.527,71.355
0.974,0.222,-0.167,8.911,-15.381,-2.991,14.481,72.432
aX,aY,aZ,gX,gY,gZ,Roll,Pitch
0.939,0.264,-0.202,10.01,-0.61,2.014,14.593,72.161
0.944,0.262,-0.146,-4.578,4.333,0.122,14.555,72.496
0.936,0.231,-0.198,-8.545,2.991,2.197,14.239,72.283
0.923,0.274,-0.196,-9.033,9.583,7.935,15.126,71.243
0.966,0.326,-0.3,-27.71,28.687,24.536,15.801,69.909
0.863,0.344,-0.407,-22.766,40.039,25.146,16.97,66.417
0.795,0.318,-0.549,-10.62,49.5,19.653,18.209,61.535
0.703,0.383,-0.64,-9.888,57.739,13.794,19.687,54.89
0.597,0.372,-0.698,-11.475,47.791,14.526,20.725,47.654
0.49,0.384,-0.805,-7.141,37.598,11.658,21.32,40.187
0.37,0.353,-0.912,-0.671,44.067,13.916,21.744,32.431
0.26,0.335,-0.886,-2.319,45.898,10.986,21.21,25.484
0.154,0.332,-0.942,-4.456,37.659,11.169,20.449,18.48
0.019,0.337,-0.975,-0.244,42.725,7.996,19.653,11.48
-0.114,0.332,-0.957,-6.714,52.49,6.348,19.502,4.579
-0.223,0.33,-0.923,-4.639,53.65,6.714,19.306,-2.327
-0.354,0.243,-0.898,0.732,50.781,8.911,18.039,-9.647
-0.475,0.287,-0.788,5.493,39.49,9.338,17.623,-17.223
-0.593,0.22,-0.754,0.671,38.574,4.639,16.089,-24.963
-0.648,0.262,-0.682,-4.028,30.945,-0.549,15.11,-32.246
-0.701,0.235,-0.637,4.944,18.555,0.061,15.001,-38.552
-0.735,0.193,-0.674,39.612,2.869,-5.249,13.342,-42.774
-0.736,0.277,-0.624,11.78,4.272,3.54,14.096,-45.324
-0.73,0.306,-0.569,-3.662,2.258,0,14.767,-47.064
-0.726,0.267,-0.569,-1.038,-8.789,-1.648,15.303,-47.852
-0.799,0.268,-0.558,12.817,-37.292,5.859,16.441,-49.272
-0.548,0.304,-0.716,39.001,-55.359,-16.357,17.191,-46.39
-0.459,0.49,-0.863,7.507,-46.448,-20.447,19.718,-40.027
-0.336,0.588,-0.832,25.452,-32.349,-14.954,24.261,-32.242
-0.24,0.562,-0.773,42.969,-28.198,-20.325,28.668,-22.996
-0.135,0.656,-0.693,-3.235,-28.931,-20.691,34.266,-16.667
0.021,0.697,-0.707,3.479,-37.415,-24.17,39.074,-10.011
0.083,0.725,-0.791,1.77,-31.128,-19.592,41.58,-3.9
0.199,0.687,-0.742,8.85,-28.687,-18.005,43.273,2.388
0.289,0.644,-0.658,5.493,-30.212,-25.818,42.966,8.428
0.453,0.615,-0.61,10.437,-38.33,-35.095,41.87,14.834
0.553,0.704,-0.618,12.268,-31.067,-27.161,41.25,21.826
0.628,0.572,-0.515,-4.639,-28.931,-18.799,39.498,28.856
0.701,0.578,-0.478,1.099,-24.17,-23.254,37.456,35.114
0.759,0.51,-0.422,-37.598,-19.043,-14.221,35.341,40.268
0.813,0.474,-0.421,-8.057,-22.583,-21.606,31.855,45.866
0.873,0.485,-0.302,-15.747,-20.081,-19.592,30.034,50.292
0.892,0.241,-0.326,20.508,-20.508,-21.423,25.124,55.941
0.923,0.297,-0.235,-4.517,-12.634,-14.465,21.876,60.602
0.935,0.271,-0.267,-3.601,-0.671,-0.854,18.828,64.63
0.942,0.236,-0.199,6.409,-0.732,0.122,15.248,68.364
0.946,0.265,-0.215,-1.343,-7.629,13.428,15.485,69.412
aX,aY,aZ,gX,gY,gZ,Roll,Pitch
0.949,0.266,-0.192,4.822,-0.183,1.282,15.001,70.228
0.94,0.252,-0.166,-17.395,6.104,-1.709,14.805,71.304
0.957,0.266,-0.25,-23.56,9.46,5.798,15.125,70.627
0.921,0.249,-0.281,-10.864,16.907,11.963,14.939,70.111
0.907,0.309,-0.36,-15.32,19.653,15.076,15.526,67.959
0.844,0.315,-0.422,-5.737,28.87,16.113,16.435,64.407
0.802,0.313,-0.5,-3.235,39.551,15.808,17.288,60.542
0.744,0.423,-0.616,-9.705,41.077,17.944,19.667,54.697
0.595,0.396,-0.751,-14.893,59.509,19.531,21.032,47.785
0.451,0.371,-0.851,-12.512,58.838,14.893,21.813,39.834
0.327,0.358,-0.911,-3.845,58.899,10.132,22.28,31.217
0.148,0.353,-0.953,0,60.12,16.296,21.327,21.973
-0.016,0.294,-0.949,0.549,57.312,14.709,20.02,13.092
-0.167,0.335,-0.916,-8.972,53.345,11.414,19.698,4.221
-0.31,0.278,-0.885,4.883,46.875,12.146,18.709,-5.039
-0.433,0.259,-0.872,2.197,42.542,11.536,17.318,-13.685
-0.557,0.302,-0.788,5.127,44.434,8.301,17.337,-21.887
-0.655,0.233,-0.654,0.793,40.527,9.888,15.955,-30.096
-0.702,0.223,-0.612,5.127,23.01,3.418,15.166,-37.145
-0.749,0.229,-0.588,6.042,15.869,1.526,14.743,-43.355
-0.759,0.218,-0.496,5.554,9.888,-2.808,13.699,-48.688
-0.794,0.239,-0.614,-3.052,1.648,2.563,13.49,-50.424
-0.775,0.263,-0.55,9.033,0.183,-1.221,13.985,-51.589
-0.755,0.226,-0.559,2.136,-8.545,-0.122,13.978,-51.954
-0.697,0.166,-0.635,-12.451,-25.574,-7.446,13.133,-50.142
-0.66,0.261,-0.664,-1.038,-29.114,-6.226,13.702,-48.25
-0.582,0.305,-0.706,9.888,-38.757,-8.789,14.451,-44.532
-0.492,0.295,-0.791,14.404,-36.255,-11.597,15.496,-39.21
-0.37,0.385,-0.88,11.169,-46.021,-11.536,18.616,-32.625
-0.235,0.434,-0.814,11.719,-44.739,-12.39,21.475,-25.68
-0.1,0.394,-0.938,17.822,-49.744,-16.663,22.581,-17.742
0.087,0.497,-0.918,10.742,-53.894,-21.179,25.388,-8.912
0.187,0.568,-0.922,15.869,-39.856,-15.564,27.796,-0.863
0.255,0.54,-0.83,2.38,-24.353,-11.719,28.829,5.93
0.319,0.545,-0.767,10.498,-20.63,-7.751,31.285,11.81
0.405,0.559,-0.687,6.104,-36.56,-5.859,32.973,16.655
0.519,0.495,-0.707,12.634,-33.752,-9.399,32.609,22.163
0.556,0.458,-0.616,26.367,-25.024,-18.921,31.878,27.503
0.692,0.52,-0.498,-4.822,-29.114,-34.485,31.496,33.927
0.773,0.538,-0.457,-1.404,-30.029,-27.71,30.531,39.889
0.833,0.36,-0.402,7.996,-27.1,-24.231,28.41,46.344
0.866,0.412,-0.354,0.061,-16.602,-14.709,26.966,51.627
0.921,0.365,-0.253,-4.15,-10.193,-7.263,24.376,56.735
0.916,0.325,-0.258,-2.502,-21.057,-20.813,21.264,61.314
0.919,0.309,-0.228,-9.888,-6.836,-7.019,20.444,63.775
0.939,0.217,-0.204,2.93,-4.272,-8.606,17.676,67.394
0.937,0.232,-0.18,12.268,1.038,-0.977,15.862,69.478
0.979,0.233,-0.136,6.714,2.441,-0.061,14.44,71.793
0.957,0.223,-0.2,-0.671,1.343,0.977,13.131,73.123
0.951,0.234,-0.155,-2.869,2.38,-0.488,13.363,73.393
0.965,0.225,-0.198,12.329,0.671,-0.61,13.16,73.439
0.962,0.217,-0.141,10.681,-1.526,3.723,12.985,73.506
aX,aY,aZ,gX,gY,gZ,Roll,Pitch
0.933,0.26,-0.201,12.512,-0.854,1.587,13.583,72.989
0.946,0.278,-0.187,-13.672,5.981,-2.502,14.195,72.227
0.939,0.214,-0.269,-15.137,11.23,12.207,14.085,71.628
0.908,0.296,-0.333,-3.296,25.146,16.052,15.215,68.851
0.893,0.344,-0.394,-5.737,37.476,21.729,16.301,66.057
0.833,0.357,-0.467,-4.578,38.574,15.991,17.417,62.005
0.749,0.427,-0.558,-2.563,42.542,16.541,20.496,56.284
0.66,0.401,-0.652,-18.127,43.64,22.522,22.151,50.597
0.563,0.388,-0.736,-15.686,37.842,13.489,23.035,44.234
0.47,0.38,-0.805,-5.127,37.231,10.925,23.447,37.522
0.364,0.419,-0.87,-3.418,37.903,9.155,23.275,30.81
0.205,0.362,-0.939,-0.854,43.03,11.108,22.626,23.484
0.1,0.376,-0.915,-5.981,36.56,10.986,22.501,16.497
-0.022,0.367,-1.015,-3.662,43.579,15.015,21.881,9.106
-0.172,0.335,-0.989,-6.714,66.772,16.785,20.46,1.537
-0.333,0.262,-0.914,-9.46,70.618,15.503,19.169,-6.008
-0.497,0.225,-0.731,-2.869,62.012,8.606,17.424,-14.951
-0.645,0.168,-0.696,1.099,50.537,7.812,14.925,-25.364
-0.718,0.21,-0.57,9.216,34.729,5.127,13.355,-35.825
-0.792,0.172,-0.56,10.986,21.423,-0.732,11.882,-44.787
-0.819,0.187,-0.53,15.32,18.86,-2.319,11.005,-50.304
-0.833,0.23,-0.468,6.287,0.366,-1.343,11.853,-54.296
-0.828,0.15,-0.528,-10.803,-4.333,-4.517,10.801,-55.942
-0.832,0.24,-0.496,-2.747,-7.874,0.366,11.766,-56.69
-0.769,0.188,-0.51,13.733,-19.165,-3.174,11.939,-56.51
-0.998,0.254,-0.696,-27.466,-39.795,-9.216,11.523,-55.22
-0.662,0.313,-0.704,-0.549,-32.288,-4.272,13.812,-51.398
-0.625,0.269,-0.739,9.888,-22.461,-1.831,14.222,-47.088
-0.549,0.287,-0.769,10.071,-24.536,-3.357,15.459,-42.284
-0.478,0.306,-0.777,19.104,-33.142,-4.639,17.259,-35.784
-0.379,0.395,-0.806,9.033,-37.354,-13.428,18.765,-31.332
-0.23,0.409,-0.908,2.441,-43.213,-11.902,20.952,-24.763
-0.083,0.407,-0.896,10.315,-49.805,-16.785,22.947,-17.5
0.017,0.443,-0.896,11.719,-48.706,-23.804,24.858,-9.876
0.2,0.552,-0.869,8.911,-51.941,-22.522,26.901,-1.372
0.412,0.436,-0.87,30.09,-58.777,-25.696,27.23,7.816
0.446,0.559,-0.84,-4.761,-25.085,-10.559,28.689,15.037
0.495,0.512,-0.697,8.911,-14.221,-2.93,29.598,21.876
0.583,0.441,-0.588,16.663,-30.334,-17.456,28.651,28.449
0.696,0.563,-0.52,17.334,-43.701,-31.311,31.004,33.442
0.792,0.503,-0.482,16.724,-46.143,-34.851,30.428,40.073
0.854,0.372,-0.392,30.029,-23.01,-17.761,28.005,46.967
0.887,0.358,-0.262,-23.254,-19.226,-13.672,26.326,52.898
0.93,0.31,-0.225,13.184,-21.362,-16.968,22.522,59.279
0.947,0.205,-0.241,5.005,-13.733,-9.827,18.191,65.156
0.931,0.314,-0.162,12.756,-9.949,-4.456,17.346,68.115
0.967,0.238,-0.131,-1.77,-6.531,-2.93,15.487,70.863
0.957,0.245,-0.123,10.071,-3.784,1.77,14.555,72.509
aX,aY,aZ,gX,gY,gZ,Roll,Pitch
0.953,0.25,-0.114,7.08,0.305,1.343,15.237,72.867
0.974,0.263,-0.114,-29.663,10.01,-1.282,14.389,73.972
0.936,0.293,-0.218,-4.395,8.301,8.85,15.223,72.631
0.936,0.28,-0.194,-3.906,17.273,15.686,15.743,71.641
0.906,0.341,-0.276,-7.263,23.193,20.63,17.05,69.215
0.859,0.361,-0.358,-5.188,29.175,20.508,18.618,65.611
0.825,0.417,-0.46,-12.268,36.804,22.705,20.427,61.665
0.725,0.483,-0.573,-17.883,50.293,27.161,23.341,55.118
0.626,0.485,-0.663,-19.287,53.284,27.893,25.467,48.401
0.471,0.473,-0.788,-12.634,53.04,24.17,27.091,40.484
0.31,0.487,-0.867,-15.32,56.641,26.672,28.216,31.539
0.145,0.432,-0.914,-14.587,62.439,23.743,27.627,22.551
-0.034,0.39,-0.903,-9.583,59.631,21.24,26.424,12.88
-0.207,0.388,-0.881,-6.287,57.922,16.968,25.418,3.107
-0.359,0.294,-0.88,-11.23,58.533,12.39,22.649,-6.675
-0.496,0.274,-0.772,-6.714,50.598,13.855,20.482,-16.531
-0.622,0.241,-0.703,-2.808,45.898,10.498,18.184,-26.002
-0.695,0.192,-0.622,5.005,35.4,7.812,15.202,-34.662
-0.774,0.187,-0.583,11.719,25.513,3.784,13.486,-42.482
-0.792,0.254,-0.488,13.977,21.057,4.761,13.116,-48.507
-0.83,0.234,-0.506,-0.427,0,-2.563,12.87,-52.608
-0.822,0.233,-0.465,-2.075,2.747,1.038,13.399,-55.228
-0.84,0.248,-0.554,4.272,-0.977,-1.831,14.12,-55.779
-0.824,0.195,-0.497,9.46,0.366,-1.221,13.179,-56.243
-0.805,0.246,-0.497,9.155,-11.292,-3.296,13.425,-56.08
-0.786,0.203,-0.49,9.705,-11.292,-1.465,13.068,-55.664
-0.738,0.259,-0.517,6.653,-28.992,-8.301,13.588,-55.168
-0.686,0.317,-0.691,0.183,-32.227,-9.521,15.366,-51.221
-0.591,0.369,-0.679,4.883,-31.738,-11.658,17.348,-46.695
-0.506,0.411,-0.854,5.493,-36.011,-16.113,20.001,-39.487
-0.424,0.434,-0.717,9.583,-29.053,-11.597,22.604,-33.634
-0.321,0.524,-0.768,8.301,-40.649,-14.954,26.18,-27.861
-0.21,0.55,-0.842,21.179,-41.077,-10.925,28.747,-21.465
-0.092,0.516,-0.9,9.155,-33.691,-12.39,30.833,-15.379
0.053,0.563,-0.839,0.854,-40.1,-24.231,32.373,-8.158
0.172,0.607,-0.807,21.301,-42.908,-28.32,33.417,-1.101
0.31,0.57,-0.734,30.212,-37.964,-25.94,34.28,6.335
0.476,0.58,-0.718,0.488,-41.321,-28.32,35.448,14.627
0.566,0.583,-0.61,12.878,-44.861,-23.987,35.776,22.361
0.676,0.518,-0.526,1.77,-41.504,-28.931,34.407,30.585
0.769,0.52,-0.471,8.667,-36.804,-30.029,32.888,37.838
0.824,0.481,-0.385,6.226,-23.315,-18.433,31.25,44.385
0.852,0.406,-0.301,2.869,-14.648,-7.324,28.489,50.676
0.891,0.405,-0.238,13.55,-19.47,-17.395,26.608,55.574
0.938,0.379,-0.188,26.978,-21.301,-20.874,24.429,60.21
0.939,0.294,-0.136,9.094,-8.728,-10.376,21.737,64.628
0.906,0.308,-0.092,0.366,-1.526,-2.014,20.372,67.36
0.968,0.327,-0.099,10.071,5.371,0.854,19.055,69.46
0.976,0.27,-0.143,-0.61,2.075,2.869,17.429,71.234
0.922,0.313,-0.07,3.296,0.854,-1.953,17.79,71.224
0.873,0.282,-0.17,7.935,0.488,0.122,17.54,71.033
0.955,0.23,-0.116,16.907,-3.967,6.47,16.238,72.107
aX,aY,aZ,gX,gY,gZ,Roll,Pitch
0.942,0.297,-0.09,14.16,-0.305,0.427,16.783,71.9
0.951,0.276,-0.084,-6.165,1.404,-1.465,16.125,72.443
0.916,0.321,-0.123,-2.686,3.967,-0.061,16.519,72.369
0.943,0.29,-0.126,-5.859,6.042,5.31,17.397,71.487
0.915,0.374,-0.256,-23.254,21.79,20.569,18.476,69.521
0.886,0.387,-0.348,-11.23,42.664,30.396,20.046,66.194
0.823,0.457,-0.419,-7.751,47.791,26.001,21.913,62.016
0.731,0.475,-0.556,-17.09,53.833,27.405,24.535,55.398
0.6,0.517,-0.693,-23.193,60.12,26.672,26.722,48.115
0.441,0.454,-0.794,-20.081,62.378,24.536,28.019,39.824
0.284,0.46,-0.871,-13.794,62.866,18.372,28.129,30.557
0.103,0.375,-0.946,-9.155,68.909,16.052,26.647,20.765
-0.085,0.432,-0.884,-14.038,61.34,15.564,25.71,10.788
-0.259,0.308,-0.89,-9.827,58.105,10.742,23.676,0.615
-0.452,0.31,-0.848,-17.517,60.486,0.977,21.399,-10.239
-0.513,0.198,-0.801,-9.399,48.645,4.639,18.795,-19.779
-0.642,0.294,-0.668,2.258,37.415,5.981,16.642,-28.817
-0.719,0.273,-0.6,9.338,26.855,-1.282,16.062,-36.812
-0.775,0.235,-0.613,8.24,28.992,3.662,14.842,-42.787
-0.771,0.112,-0.562,38.391,20.996,-6.531,13.527,-48.106
-0.814,0.278,-0.49,-10.498,5.127,3.479,13.225,-51.643
-0.835,0.274,-0.479,0.916,-1.099,-1.404,13.159,-53.963
-0.82,0.266,-0.485,8.789,-6.897,1.465,13.705,-55.577
-0.773,0.298,-0.458,16.724,-20.264,-2.747,16.525,-55.665
-0.715,0.332,-0.563,38.757,-30.762,-8.789,17.48,-53.756
-0.667,0.339,-0.551,13.306,-36.011,-10.62,18.847,-51.118
-0.563,0.412,-0.723,22.949,-41.26,-20.63,21.214,-45.437
-0.453,0.531,-0.807,20.813,-41.931,-21.24,24.332,-37.759
-0.375,0.61,-0.769,25.879,-33.691,-15.93,28.292,-31.04
-0.267,0.536,-0.734,5.676,-25.696,-14.893,31.153,-24.244
-0.133,0.541,-0.68,13.855,-42.542,-22.156,34.454,-18.255
0.008,0.637,-0.742,17.944,-50.598,-30.762,37.527,-11.609
0.225,0.699,-0.729,9.705,-56.152,-38.696,39.839,-2.545
0.373,0.724,-0.831,0.854,-45.288,-27.283,40.724,6.824
0.419,0.573,-0.689,8.057,-24.048,-10.193,39.767,14.436
0.495,0.607,-0.536,23.56,-31.128,-21.606,39.384,21.652
0.61,0.581,-0.541,5.432,-37.354,-30.518,37.683,27.832
0.716,0.59,-0.449,-0.122,-36.743,-35.095,36.727,34.743
0.796,0.364,-0.44,-17.212,-30.823,-23.315,33.202,41.989
0.852,0.471,-0.29,7.141,-24.475,-17.212,30.286,48.371
0.892,0.436,-0.226,19.775,-21.545,-16.968,27.696,54.378
0.898,0.396,-0.137,8.667,-14.16,-4.944,24.815,59.877
0.935,0.317,-0.108,19.409,-17.7,-17.517,23.9,63.407
0.949,0.284,-0.085,16.418,-12.695,-9.216,21.092,67.293
0.951,0.316,-0.017,1.099,-10.986,-9.583,19.293,70.015
0.947,0.268,-0.047,-12.146,-1.099,-0.122,17.339,72.245
0.966,0.296,0.009,5.371,3.174,-0.122,16.948,72.927
0.97,0.271,-0.038,12.024,1.831,-0.244,16.685,73.259
0.936,0.264,0.073,23.193,3.845,1.038,16.043,73.957
aX,aY,aZ,gX,gY,gZ,Roll,Pitch