aX,aY,aZ,gX,gY,gZ,Roll,Pitch
0.952,0.234,-0.27,-2.991,-0.427,1.16,13.32,69.427
0.938,0.22,-0.29,-9.033,5.188,-1.282,12.986,69.107
0.919,0.233,-0.323,-8.057,3.052,1.892,13.145,68.272
0.913,0.165,-0.31,8.057,13,6.409,12.308,68.488
0.906,0.22,-0.396,-2.258,18.25,7.996,12.112,66.965
0.879,0.251,-0.446,2.258,20.935,9.155,12.539,64.676
0.813,0.318,-0.586,-2.991,40.1,20.081,13.687,60.552
0.713,0.349,-0.748,-1.404,66.772,18.616,16.033,53.446
0.558,0.346,-0.837,-6.165,98.572,21.057,17.742,45.556
0.364,0.308,-0.953,-11.719,84.656,11.963,18.414,35.824
0.058,0.366,-0.943,-7.568,82.886,19.531,19.479,24.36
-0.175,0.266,-0.885,-14.282,69.824,18.311,19.121,11.845
-0.395,0.155,-0.868,-8.179,67.81,14.893,16.679,-2.22
-0.5,0.237,-0.684,-6.653,36.621,0,16.178,-15.983
-0.576,0.227,-0.72,-2.38,3.052,-0.244,13.946,-26.658
-0.553,0.252,-0.713,5.554,-11.475,-3.296,13.567,-33.062
-0.432,0.263,-0.777,21.24,-47.18,-13.916,15.393,-34
-0.312,0.382,-0.863,17.212,-60.608,-2.014,17.336,-29.786
-0.123,0.383,-0.965,17.456,-61.157,-11.536,19.52,-21.766
0.05,0.451,-0.936,22.4,-50.659,-24.963,22.143,-12.023
0.252,0.534,-0.78,17.09,-65.613,-32.227,26.262,-1.941
0.554,0.561,-0.753,31.555,-77.209,-50.659,28.785,10.537
0.705,0.557,-0.567,9.644,-57.434,-35.645,31.643,22.915
0.818,0.468,-0.438,23.621,-45.837,-35.828,31.616,35.163
0.835,0.437,-0.37,-30.701,-23.682,-16.602,29.288,44.772
0.899,0.258,-0.284,-0.671,-16.479,-9.277,25.201,53.737
0.927,0.331,-0.261,-6.531,-10.254,-15.015,21.804,59.921
0.985,0.178,-0.21,-20.752,-36.316,-21.729,17.509,65.68
0.953,0.229,-0.149,13.306,0.366,1.343,14.436,70.33
aX,aY,aZ,gX,gY,gZ,Roll,Pitch
0.966,0.223,-0.138,9.46,-0.183,1.587,13.826,72.278
0.969,0.245,-0.154,-23.743,5.371,-2.38,12.565,74.268
0.946,0.209,-0.22,-1.892,7.996,3.357,13.114,73.689
0.906,0.307,-0.328,-5.798,45.227,18.25,14.228,71.137
0.898,0.352,-0.429,3.967,63.599,25.269,15.969,66.899
0.787,0.323,-0.588,3.418,65.552,26.55,17.111,60.929
0.62,0.407,-0.87,-18.494,75.623,29.602,19.592,50.852
0.376,0.455,-0.872,-7.69,101.624,39.429,21.78,40.339
0.063,0.382,-0.905,-8.85,79.895,28.137,22.825,27.191
-0.131,0.393,-0.833,-0.977,67.81,17.273,24.451,13.575
-0.396,0.308,-0.878,-10.62,51.514,10.803,23.793,-1.312
-0.537,0.333,-0.793,-1.465,61.035,21.118,21.735,-15.162
-0.629,0.332,-0.574,15.808,54.26,12.939,21.251,-26.681
-0.719,0.255,-0.504,1.648,22.461,8.85,18.969,-37.133
-0.722,0.175,-0.5,3.357,-12.756,-8.057,17.258,-44.93
-0.599,0.327,-0.573,10.376,-51.514,-25.024,17.62,-47.898
-0.411,0.415,-0.846,27.222,-95.459,-41.504,18.778,-42.314
-0.078,0.512,-0.838,29.419,-94.849,-40.588,23.426,-30.237
0.234,0.579,-0.829,24.414,-86.243,-44.373,29.797,-13.38
0.413,0.611,-0.695,25.513,-72.449,-47.302,33.395,2.365
0.706,0.586,-0.615,20.447,-69.275,-44.8,35.25,18.768
0.828,0.498,-0.524,-10.01,-45.41,-34.424,33.451,31.936
0.875,0.429,-0.289,4.822,-31.799,-21.851,31.031,43.225
0.873,0.45,-0.296,-14.282,-20.874,-16.296,27.913,51.471
0.928,0.256,-0.17,8.972,-20.813,-14.587,23.648,59.373
0.949,0.257,-0.152,-8.667,-3.174,-4.883,20.436,65.368
0.981,0.227,-0.097,-11.963,-15.991,-7.446,17.389,69.589
aX,aY,aZ,gX,gY,gZ,Roll,Pitch
0.951,0.231,-0.093,16.541,0.732,1.648,14.169,73.929
0.943,0.267,-0.118,-31.067,16.541,6.287,14.298,74.167
0.921,0.286,-0.299,-26.611,32.776,26.733,14.74,72.735
0.88,0.446,-0.388,-14.709,57.922,40.039,17.933,67.591
0.801,0.378,-0.542,-10.559,56.335,26.062,19.955,61.484
0.638,0.475,-0.73,-7.385,71.045,25.94,22.706,52.14
0.462,0.484,-0.786,-10.315,74.707,28.687,25.701,42.59
0.247,0.443,-0.87,-7.812,56.274,24.78,26.115,32.092
0.035,0.386,-0.916,-12.939,54.932,17.212,26.551,20.203
-0.105,0.376,-0.864,1.953,39.795,10.071,25.807,9.467
-0.179,0.352,-0.791,5.676,13.306,-0.549,24.354,-0.043
-0.183,0.414,-0.902,6.409,-7.629,-3.052,23.595,-6.507
-0.12,0.422,-0.831,18.005,-18.738,-7.446,24.473,-8.942
0.013,0.46,-0.824,41.199,-45.288,-22.583,26.001,-7.174
0.137,0.601,-0.75,36.377,-52.612,-28.87,29.826,-2.303
0.356,0.628,-0.704,17.578,-62.866,-30.579,33.975,5.867
0.573,0.604,-0.674,11.841,-51.147,-38.208,36.104,16.098
0.677,0.555,-0.463,7.935,-31.494,-28.015,37.401,26.315
0.841,0.465,-0.377,7.996,-39.978,-36.499,34.286,37.748
0.877,0.466,-0.303,15.808,-18.982,-21.545,30.983,46.979
0.906,0.246,-0.152,2.441,-27.1,-16.663,26.028,56.772
0.917,0.277,-0.151,-22.4,-27.222,-22.827,21.582,63.64
0.965,0.224,-0.112,-4.15,-10.071,-8.24,17.995,68.958
0.971,0.184,-0.074,2.258,-1.16,0.854,13.81,74.357
0.97,0.234,-0.053,30.396,-2.258,4.272,13.46,75.35
aX,aY,aZ,gX,gY,gZ,Roll,Pitch
0.971,0.218,-0.043,10.376,-0.305,1.465,12.473,76.856
0.983,0.238,-0.067,-7.385,3.174,-2.441,12.615,76.918
0.962,0.234,-0.094,-5.127,9.155,8.362,13.343,76.138
0.926,0.337,-0.255,-8.789,39.734,30.518,14.859,73.687
0.903,0.413,-0.372,-1.038,58.533,32.593,17.588,68.933
0.788,0.474,-0.507,3.906,72.021,38.33,21.079,61.963
0.58,0.5,-0.708,-23.254,74.768,37.598,25.037,51.735
0.335,0.518,-0.834,-19.409,75.439,29.114,28.169,40.236
0.073,0.513,-0.863,-10.01,69.824,29.358,30.452,26.674
-0.091,0.443,-0.764,1.282,43.884,20.264,30.931,13.507
-0.252,0.477,-0.81,-3.357,16.174,7.141,30.82,0.984
-0.264,0.406,-0.773,4.761,-1.587,-2.991,29.483,-8.21
-0.194,0.441,-0.787,3.662,-25.391,-17.517,28.646,-12.547
-0.051,0.549,-0.734,30.334,-51.636,-29.297,30.37,-11.846
0.208,0.566,-0.78,21.545,-67.383,-36.804,32.41,-4.708
0.471,0.633,-0.747,24.658,-60.669,-43.64,35.403,6.601
0.654,0.594,-0.572,15.442,-49.011,-41.504,36.974,19.236
0.801,0.496,-0.431,10.071,-51.392,-40.222,34.658,32.03
0.924,0.379,-0.37,17.395,-48.157,-42.664,30.614,43.669
0.898,0.302,-0.198,-0.244,-23.926,-20.02,25.977,54.161
0.956,0.236,-0.102,-11.719,-5.676,-2.502,20.672,63.42
0.954,0.299,-0.107,-4.7,-2.075,-1.526,17.686,68.872
0.947,0.233,-0.063,21.179,-15.259,1.953,15.778,72.725
aX,aY,aZ,gX,gY,gZ,Roll,Pitch
0.963,0.22,-0.077,7.751,-2.747,-0.854,14.437,74.667
0.953,0.247,-0.056,-18.066,4.089,-3.601,14.624,74.702
0.948,0.217,-0.088,13.184,8.24,2.258,13.494,75.861
0.969,0.278,-0.212,-1.892,31.86,24.841,14.012,74.606
0.939,0.355,-0.33,-6.775,58.105,39.307,15.829,71.238
0.821,0.428,-0.474,-11.047,63.721,35.706,18.41,65.338
0.66,0.501,-0.655,0.366,66.04,37.415,22.46,55.989
0.404,0.517,-0.82,-16.724,76.416,40.771,26.394,44.204
0.168,0.453,-0.815,-17.456,73.608,30.151,28.879,31.491
-0.1,0.469,-0.896,-5.31,65.552,17.395,29.844,16.9
-0.278,0.406,-0.829,9.216,61.401,19.043,28.737,2.906
-0.412,0.374,-0.695,-8.362,40.527,12.451,27.319,-9.658
-0.542,0.422,-0.638,-0.305,19.409,4.395,26.593,-20.927
-0.556,0.397,-0.673,2.502,-4.272,0.244,25.497,-28.795
-0.5,0.395,-0.645,8.118,-19.104,-8.972,25.512,-33.05
-0.238,0.473,-0.664,21.606,-75.195,-40.222,27.808,-30.51
0.027,0.644,-0.849,34.851,-94.36,-53.345,31.632,-20.36
0.344,0.707,-0.861,8.301,-80.139,-35.339,36.127,-5.594
0.51,0.61,-0.655,17.334,-64.209,-38.086,38.173,9.387
0.742,0.517,-0.529,9.094,-51.88,-48.157,36.753,23.066
0.88,0.523,-0.333,13.245,-50.476,-51.27,34.463,36.473
0.937,0.416,-0.252,-4.089,-26.123,-20.874,30.24,48.446
0.945,0.22,-0.155,2.747,-7.751,-2.136,24.212,59.031
0.961,0.255,-0.114,-4.15,-14.465,-5.005,20.305,66.076
0.937,0.222,-0.089,20.02,-5.249,2.136,16.21,71.433
aX,aY,aZ,gX,gY,gZ,Roll,Pitch
0.926,0.192,-0.083,31.738,-0.793,4.272,13.181,75.252
0.953,0.276,-0.115,-0.244,8.606,-0.366,13.953,74.811
0.942,0.292,-0.255,-6.042,33.508,29.846,14.492,73.387
0.896,0.457,-0.314,-10.315,56.213,37.72,17.757,68.862
0.793,0.521,-0.511,-10.559,63.171,50.049,22.244,61.412
0.555,0.532,-0.665,-20.142,75.989,51.819,26.381,51.789
0.326,0.552,-0.832,-20.996,74.646,37.231,30.77,39.621
0.042,0.521,-0.827,-5.371,68.237,32.288,32.699,25.84
-0.121,0.486,-0.755,12.695,26.978,7.08,33.322,12.155
-0.202,0.515,-0.747,0.183,1.16,-2.625,33.275,0.67
-0.137,0.512,-0.732,10.193,-19.165,-8.606,33.351,-6.511
0.085,0.602,-0.719,21.423,-70.557,-30.945,35.374,-5.906
0.26,0.643,-0.824,16.846,-64.392,-27.832,36.923,0.093
0.526,0.705,-0.7,17.761,-62.073,-46.692,38.773,10.764
0.68,0.628,-0.525,2.625,-51.208,-41.321,39.087,22.299
0.864,0.497,-0.392,23.743,-56.335,-51.697,36.239,33.843
0.907,0.374,-0.216,12.939,-36.072,-33.813,32.228,46.078
0.996,0.318,-0.113,-17.456,-11.292,-11.841,26.366,57.411
0.944,0.243,-0.121,-3.479,-0.977,-2.197,20.62,65.882
0.951,0.3,-0.082,-9.216,-1.16,0.671,17.848,70.501
0.941,0.268,-0.055,-27.466,0.549,-3.479,16.345,72.766
0.889,0.167,-0.129,29.297,-7.812,0.244,14.629,74.237
aX,aY,aZ,gX,gY,gZ,Roll,Pitch
0.976,0.201,-0.102,9.705,1.404,1.709,13.919,75.019
1.002,0.217,-0.067,-28.32,9.338,-2.686,12.56,76.384
0.988,0.225,-0.149,12.817,1.77,5.554,11.778,76.512
0.918,0.248,-0.294,-21.484,41.565,28.259,12.765,74.443
0.887,0.348,-0.426,-20.691,59.692,22.461,14.871,69.77
0.756,0.422,-0.572,16.418,62.622,21.179,17.981,61.788
0.642,0.384,-0.579,9.521,27.222,13.428,20.705,53.871
0.569,0.449,-0.672,10.864,14.16,5.92,23.797,45.951
0.547,0.448,-0.706,2.258,8.667,0.061,25.526,39.521
0.518,0.486,-0.707,-1.892,9.644,2.93,26.766,35.464
0.515,0.446,-0.722,-0.854,2.625,0.427,27.37,32.68
0.516,0.458,-0.72,3.296,-1.282,-0.793,27.444,31.685
0.536,0.455,-0.693,3.113,-8.24,-2.136,27.642,31.606
0.575,0.438,-0.724,5.554,-12.878,-6.897,26.716,32.379
0.636,0.441,-0.609,9.644,-19.653,-11.78,26.737,34.603
0.733,0.423,-0.555,11.658,-35.156,-20.935,26.159,38.447
0.824,0.356,-0.48,4.333,-41.077,-24.902,24.489,43.745
0.882,0.357,-0.466,-1.587,-34.546,-22.827,22.941,49.402
0.948,0.215,-0.2,44.495,-44.861,-26.733,19.632,57.318
0.921,0.22,-0.188,-13.062,-14.771,-4.883,16.76,63.783
0.974,0.203,-0.098,-9.399,-6.409,-2.075,14.523,69.702
0.972,0.196,-0.103,-3.906,-5.249,-0.244,12.201,75.011
0.962,0.203,-0.119,-1.282,-12.085,2.502,12.033,75.822
aX,aY,aZ,gX,gY,gZ,Roll,Pitch
0.948,0.192,-0.09,11.658,1.587,-1.038,11.581,76.941
0.955,0.228,-0.106,-18.25,4.7,-5.066,11.992,76.514
0.952,0.252,-0.21,-3.296,18.433,8.545,12.798,75.027
0.935,0.21,-0.418,-5.859,72.876,37.048,12.804,72.332
0.829,0.397,-0.542,9.399,81.36,26.306,15.617,65.461
0.664,0.395,-0.746,-0.305,94.971,26.489,17.873,55.888
0.421,0.492,-0.798,0.732,76.294,22.156,21.484,44.35
0.111,0.482,-0.885,-4.883,70.862,31.189,26.147,30.374
-0.047,0.439,-0.805,-4.883,44.312,16.785,27.772,17.227
-0.193,0.438,-0.826,-2.991,21.179,3.113,29.083,4.393
-0.232,0.475,-0.872,-0.305,8.301,-1.404,28.288,-5.357
-0.275,0.449,-0.87,0.854,11.292,3.479,27.533,-11.058
-0.257,0.41,-0.787,5.249,-0.244,-3.418,26.926,-14.161
-0.228,0.45,-0.809,10.681,-17.029,-6.958,27.117,-14.692
-0.104,0.525,-0.802,20.386,-46.753,-14.893,28.473,-12.984
0.112,0.561,-0.797,15.259,-71.899,-22.217,31.067,-7.269
0.456,0.554,-0.844,-0.427,-82.275,-42.725,32.66,3.501
0.603,0.624,-0.701,-6.836,-65.308,-33.447,34.301,15.4
0.787,0.435,-0.453,4.395,-64.514,-41.748,32.51,28.935
0.915,0.294,-0.344,14.221,-40.039,-32.654,27.78,42.427
0.943,0.241,-0.251,17.029,-24.048,-13.977,23.382,53.907
0.94,0.278,-0.148,3.967,-0.671,-2.014,18.28,64.249
0.975,0.203,-0.153,7.874,-4.456,-3.357,14.686,70.246
0.973,0.24,-0.135,4.272,-13.794,-10.132,13.881,72.855
aX,aY,aZ,gX,gY,gZ,Roll,Pitch
0.96,0.196,-0.094,13.55,0.916,2.808,13.276,74.618
0.963,0.198,-0.07,-35.645,4.883,-5.615,12.119,76.193
0.969,0.187,-0.142,4.944,6.775,2.869,11.923,76.433
0.949,0.254,-0.227,-9.705,35.095,20.203,12.164,75.521
0.913,0.315,-0.381,-6.47,53.284,28.564,13.823,71.635
0.783,0.478,-0.579,-4.028,87.158,41.626,17.784,63.338
0.541,0.437,-0.786,-17.944,83.252,37.109,21.615,52.217
0.263,0.461,-0.862,-4.7,77.637,27.832,25.087,38.805
0.007,0.529,-0.858,9.949,68.298,26.184,28.748,23.73
-0.2,0.437,-0.809,-0.061,62.805,25.513,28.938,9.123
-0.379,0.352,-0.755,-6.775,42.908,12.268,28.329,-4.739
-0.465,0.47,-0.692,4.639,9.155,2.136,28.569,-16.117
-0.455,0.397,-0.724,9.399,-14.954,-6.531,26.391,-23.742
-0.312,0.443,-0.638,22.156,-44.739,-27.344,27.159,-26.279
-0.146,0.572,-0.667,20.264,-62.683,-34.058,31.674,-22.609
0.152,0.599,-0.852,34.668,-89.233,-46.143,34.013,-12.222
0.433,0.626,-0.76,10.071,-69.275,-31.982,37.5,1.973
0.614,0.63,-0.625,9.705,-41.443,-31.311,38.168,15.541
0.74,0.546,-0.489,7.751,-40.344,-30.518,35.679,28.076
0.824,0.482,-0.407,7.629,-33.325,-24.353,33.383,38.957
0.886,0.386,-0.276,-14.038,-31.128,-23.499,29.918,48.389
0.902,0.41,-0.245,-7.568,-22.583,-20.813,26.608,55.447
0.951,0.238,-0.163,-16.052,-24.353,-15.32,22.132,62.351
0.972,0.17,-0.07,13.916,-0.732,1.648,17.637,69.063
aX,aY,aZ,gX,gY,gZ,Roll,Pitch
0.968,0.207,-0.049,-0.671,1.099,0.854,14.98,73.105
0.978,0.238,-0.057,-23.254,6.287,-2.38,12.385,76.655
0.956,0.218,-0.169,-4.333,18.066,15.503,12.086,76.901
0.918,0.289,-0.284,0.244,42.664,23.987,13.844,73.888
0.873,0.423,-0.453,7.996,64.575,27.283,16.886,67.886
0.756,0.502,-0.62,5.554,81.848,35.583,20.544,59.154
0.502,0.512,-0.757,-1.709,87.219,35.461,24.939,48.183
0.265,0.508,-0.811,0.977,79.407,31.555,28.605,36.157
-0.012,0.637,-0.758,24.963,64.697,23.315,33.109,22.48
-0.221,0.542,-0.754,1.221,42.847,20.752,35.128,8.034
-0.309,0.553,-0.676,-6.897,24.78,9.705,36.644,-4.229
-0.386,0.492,-0.718,-7.202,-3.479,-0.183,36.09,-14.225
-0.338,0.491,-0.719,11.597,-9.949,-6.47,33.577,-19.503
-0.188,0.548,-0.628,27.1,-50.11,-27.1,34.773,-19.537
0.025,0.603,-0.676,20.752,-76.172,-39.795,36.522,-14.338
0.34,0.754,-0.752,20.447,-70.618,-47.18,40.771,-2.535
0.454,0.689,-0.575,8.301,-41.321,-33.63,43.808,9.676
0.682,0.601,-0.451,14.648,-39.795,-37.354,42.63,22.566
0.773,0.536,-0.359,-12.451,-41.687,-34.79,39.754,33.878
0.877,0.388,-0.292,2.136,-29.358,-29.846,34.254,45.087
0.903,0.403,-0.163,-15.381,-20.142,-25.513,29.034,54.516
0.973,0.294,-0.081,-0.671,-31.616,-22.583,24.016,62.293
0.948,0.197,-0.125,-17.944,-9.399,-5.798,18.832,68.704
0.966,0.21,-0.056,16.785,-7.202,-2.136,16.144,72.666
aX,aY,aZ,gX,gY,gZ,Roll,Pitch
0.958,0.211,-0.074,12.634,-0.061,1.648,13.289,75.824
0.998,0.244,-0.063,-35.217,8.728,-7.202,12.519,76.645
0.96,0.216,-0.214,10.681,28.992,24.353,12.712,75.972
0.922,0.411,-0.343,-8.057,65.308,41.199,15.49,71.5
0.815,0.438,-0.497,-1.587,72.449,43.213,18.72,65.038
0.588,0.543,-0.695,-26.672,70.618,40.955,23.358,54.138
0.367,0.507,-0.864,-7.202,82.275,31.799,27.771,41.348
0.082,0.484,-0.858,-3.662,87.891,26.794,29.729,27.767
-0.124,0.513,-0.785,-14.404,63.721,19.226,31.578,13.516
-0.316,0.416,-0.727,3.723,28.076,9.949,30.69,0.147
-0.349,0.468,-0.798,2.075,-3.723,-4.456,30.085,-10.864
-0.241,0.476,-0.681,12.024,-29.541,-14.709,30.631,-16.273
-0.087,0.587,-0.828,9.155,-67.322,-22.705,31.385,-15.4
0.173,0.57,-0.817,22.217,-74.341,-28.381,33.591,-7.623
0.357,0.623,-0.744,27.039,-62.012,-25.33,36.254,3.041
0.574,0.517,-0.616,33.264,-60.12,-33.081,35.898,15.046
0.715,0.465,-0.501,17.456,-54.077,-35.95,33.892,27.797
0.831,0.507,-0.32,18.921,-34.241,-31.067,32.611,39.216
0.932,0.364,-0.255,8.728,-46.448,-38.513,27.966,50.573
0.943,0.287,-0.146,8.179,-31.189,-30.029,24.078,59.293
0.964,0.242,-0.043,-8.606,-5.676,-1.404,20.485,66.505
0.963,0.181,-0.031,-5.188,4.089,2.563,15.672,72.821
0.98,0.208,-0.043,-4.395,4.822,-2.075,13.395,76.055
aX,aY,aZ,gX,gY,gZ,Roll,Pitch
0.96,0.212,-0.026,10.925,0.977,1.404,12.293,77.527
0.966,0.256,-0.075,-13.306,10.132,6.592,12.477,77.26
0.94,0.318,-0.241,-5.737,54.138,44.556,14.41,74.514
0.881,0.474,-0.315,-21.667,58.838,35.034,18.312,69.235
0.753,0.506,-0.592,5.615,69.092,38.757,22.525,60.813
0.526,0.601,-0.739,-11.414,84.839,46.326,27.616,49.185
0.223,0.603,-0.754,-10.681,81.848,48.218,32.851,36.295
-0.042,0.505,-0.799,-8.118,57.251,31.616,34.423,21.886
-0.235,0.453,-0.8,-5.493,39.612,10.254,34.66,7.131
-0.318,0.449,-0.659,6.592,17.212,-4.272,33.527,-5.868
-0.314,0.582,-0.785,10.315,-10.498,-3.479,32.071,-14.043
-0.23,0.542,-0.622,19.47,-28.259,-9.644,33.441,-17.366
0.016,0.68,-0.654,38.208,-86.365,-49.316,38.343,-13.468
0.428,0.455,-0.666,2.38,-87.952,-81.36,39.608,-1.617
0.673,0.67,-0.602,6.897,-65.735,-63.171,41.046,14.38
0.777,0.507,-0.395,11.353,-40.955,-35.278,37.672,30.057
0.92,0.427,-0.217,11.902,-35.95,-41.87,31.406,45.103
0.928,0.311,-0.169,11.108,-26.55,-22.888,28.167,54.38
0.982,0.32,-0.089,-6.836,-6.836,-6.531,22.873,63.59
0.975,0.194,-0.043,-7.874,-3.418,-3.113,18.072,70.382
0.982,0.166,-0.067,6.104,2.808,2.441,14.329,74.694
0.982,0.191,-0.018,16.296,-6.287,4.7,12.518,77.094
aX,aY,aZ,gX,gY,gZ,Roll,Pitch
0.966,0.266,-0.045,3.418,0.061,-0.916,11.811,77.924
0.964,0.294,-0.072,-36.56,17.456,-1.831,13.24,76.439
0.909,0.286,-0.324,-8.667,55.237,43.457,15.093,73.459
0.811,0.522,-0.478,-8.423,76.538,51.392,19.981,65.696
0.618,0.564,-0.663,-5.676,79.285,42.053,24.589,55.524
0.323,0.672,-0.759,-9.766,79.285,44.373,30.517,41.373
0.039,0.515,-0.812,-1.77,68.97,36.621,34.969,26.856
-0.17,0.554,-0.766,-2.075,55.969,20.63,36.565,12.102
-0.333,0.528,-0.711,-1.221,39.001,8.972,36.641,-2.101
-0.37,0.515,-0.669,-0.61,2.747,-0.671,34.506,-12.906
-0.404,0.509,-0.723,3.601,-10.071,-2.563,33.849,-19.729
-0.262,0.528,-0.63,24.048,-31.982,-15.442,34.239,-21.729
-0.032,0.688,-0.596,80.383,-74.158,-47.119,38.398,-17.23
0.282,0.66,-0.552,24.292,-74.158,-67.932,43.258,-6.878
0.538,0.753,-0.513,3.967,-48.34,-62.744,48.212,8.575
0.703,0.62,-0.366,9.155,-31.494,-49.072,47.245,23.726
0.829,0.575,-0.312,-1.343,-31.067,-36.316,41.686,36.88
0.829,0.478,-0.253,-0.916,-13.794,-16.846,36.82,45.783
0.907,0.349,-0.206,-13.428,-11.841,-19.775,30.289,54.646
0.951,0.33,-0.075,-1.404,-37.72,-40.527,25.592,61.268
0.954,0.254,-0.1,-11.23,-8.301,-1.892,20.894,66.986
0.973,0.266,-0.032,19.348,-4.395,1.099,17.477,71.478
aX,aY,aZ,gX,gY,gZ,Roll,Pitch
0.961,0.265,-0.062,10.254,0.305,1.16,16.156,73.368
0.964,0.279,-0.038,-45.715,9.094,-3.235,15.411,74.217
0.919,0.325,-0.179,-2.625,17.151,14.648,16.505,72.866
0.92,0.404,-0.246,-1.038,36.926,26.55,18.523,69.899
0.845,0.487,-0.43,-5.676,55.969,38.94,21.701,64.481
0.692,0.495,-0.595,-3.174,75.439,41.626,24.956,56.411
0.487,0.566,-0.693,-4.15,78.857,41.809,28.867,46.767
0.23,0.608,-0.751,-4.883,72.876,35.4,32.806,34.528
-0.038,0.617,-0.783,-4.333,63.477,25.574,36.068,20.693
-0.246,0.57,-0.767,5.554,52.612,25.513,37.968,6.497
-0.391,0.573,-0.66,7.263,46.875,20.569,38.33,-6.678
-0.504,0.49,-0.551,1.099,16.418,7.935,36.837,-18.303
-0.477,0.524,-0.609,10.254,-16.113,-10.315,35.26,-25.648
-0.326,0.558,-0.5,22.766,-55.237,-33.508,36.724,-28.244
-0.111,0.688,-0.735,30.334,-72.754,-38.574,39.087,-23.286
0.08,0.801,-0.67,6.592,-62.256,-29.602,44.156,-13.049
0.322,0.79,-0.656,5.92,-53.406,-36.011,47.917,-0.507
0.511,0.679,-0.551,16.602,-41.931,-43.091,47.268,11.497
0.686,0.555,-0.413,-3.845,-47.729,-45.776,45.318,23.74
0.845,0.537,-0.366,11.292,-46.631,-41.748,39.675,36.112
0.876,0.459,-0.249,5.249,-23.071,-22.888,33.913,46.879
0.916,0.226,-0.153,7.08,-24.292,-20.63,26.748,57.297
0.944,0.352,-0.097,3.54,-9.766,-12.939,23.138,63.37
0.967,0.235,-0.085,11.414,-6.653,3.784,18.743,69.299
0.913,0.192,-0.05,18.616,2.502,0.305,14.96,73.956
0.959,0.255,-0.058,-5.249,0,-0.854,15.237,74.163
0.971,0.229,-0.06,-8.85,-3.906,0.244,13.411,76.073
0.963,0.202,-0.061,12.451,1.282,-0.793,12.955,76.605
aX,aY,aZ,gX,gY,gZ,Roll,Pitch
0.975,0.25,-0.041,9.155,0.183,1.221,13.577,76.048
0.94,0.312,-0.085,-44.434,14.954,8.301,14.439,75.113
0.905,0.403,-0.261,-10.193,36.133,36.377,17.032,71.717
0.858,0.466,-0.398,-21.729,68.42,52.917,20.838,66.071
0.716,0.558,-0.523,0.916,64.819,40.894,25.499,57.818
0.503,0.636,-0.634,2.319,69.153,46.692,30.574,47.338
0.282,0.608,-0.612,-7.141,48.157,29.541,35.3,36.952
0.232,0.648,-0.632,5.432,-0.061,-2.991,39.604,26.805
0.166,0.691,-0.698,2.625,-10.01,-7.324,42.344,17.967
0.338,0.624,-0.553,59.937,-33.386,-26.184,43.651,15.863
0.453,0.685,-0.585,16.479,-44.861,-33.02,44.023,18.189
0.597,0.683,-0.469,36.865,-40.833,-39.856,43.975,23.723
0.774,0.581,-0.316,8.057,-33.386,-42.236,41.639,33.951
0.835,0.522,-0.24,3.967,-26.978,-32.104,38.48,42.043
0.92,0.392,-0.171,-1.953,-26.55,-32.593,33.053,51.516
0.927,0.31,-0.107,-3.479,-13.062,-16.235,26.914,60.089
0.95,0.357,-0.047,-5.981,-12.329,-13.733,23.266,65.195
0.955,0.269,-0.031,-11.963,0.427,2.991,19.404,69.878
0.984,0.194,-0.012,-7.019,2.747,1.099,16.465,73.278
0.967,0.27,-0.035,-7.019,1.465,-1.831,15.776,74.116
0.933,0.16,-0.077,17.7,0,-0.732,13.078,76.721
0.972,0.327,-0.012,2.258,1.16,0.488,13.846,76.01
0.985,0.171,0.008,40.1,0.183,-1.282,13.52,76.372
aX,aY,aZ,gX,gY,gZ,Roll,Pitch
0.961,0.285,-0.053,10.986,-0.916,2.869,13.748,76.111
0.937,0.28,-0.061,-34.668,9.338,3.662,15.414,74.489
0.933,0.342,-0.223,-29.419,34.607,36.133,15.719,73.545
0.801,0.536,-0.505,-3.052,72.693,41.504,21.162,65.294
0.604,0.551,-0.689,-26.184,80.627,44.922,25.433,55.406
0.323,0.51,-0.854,-22.095,91.248,41.321,28.993,41.711
0.001,0.557,-0.831,-7.568,87.28,34.973,32.673,25.687
-0.237,0.405,-0.769,4.028,70.313,24.231,32.156,10.48
-0.454,0.442,-0.697,-13.428,46.631,9.277,31.106,-5.687
-0.536,0.417,-0.604,15.869,13.855,1.648,30.032,-19.687
-0.531,0.447,-0.665,12.268,-13.428,-4.822,27.747,-28.577
-0.365,0.456,-0.537,27.649,-51.819,-26.733,29.332,-31.637
-0.122,0.601,-0.628,14.099,-88.318,-45.776,33.613,-26.625
0.212,0.714,-0.774,12.939,-81.36,-45.349,39.12,-13.263
0.46,0.667,-0.634,1.892,-50.72,-35.645,43.381,2.983
0.68,0.652,-0.441,16.541,-42.542,-48.401,43.595,18.784
0.803,0.612,-0.362,0.61,-40.1,-39.917,40.572,32.017
0.83,0.539,-0.254,-19.653,-21.423,-22.156,37.245,42.819
0.914,0.371,-0.171,8.85,-32.776,-36.133,32.188,52.276
0.92,0.348,-0.115,-21.912,-28.748,-32.104,27.561,59.094
0.962,0.25,-0.073,-8.545,-6.653,-3.418,22.297,65.832
0.973,0.194,-0.041,7.935,1.892,1.282,17.054,71.938
0.974,0.241,-0.037,6.714,-3.418,1.587,15.055,74.443
aX,aY,aZ,gX,gY,gZ,Roll,Pitch
0.955,0.225,-0.031,0.671,1.648,0.427,13.231,76.501
0.972,0.284,-0.03,-16.235,5.92,-7.08,13.684,76.165
0.965,0.198,-0.134,2.258,9.827,7.263,13.756,75.829
0.947,0.318,-0.209,5.432,32.593,21.729,14.878,73.984
0.904,0.335,-0.342,-9.766,59.204,37.964,16.411,70.507
0.809,0.458,-0.497,2.319,65.979,31.86,18.952,64.063
0.639,0.535,-0.651,5.31,77.637,35.522,23.924,54.359
0.425,0.611,-0.792,0.916,85.327,38.391,28.35,42.843
0.078,0.544,-0.786,-5.371,82.214,43.64,32.652,29.339
-0.168,0.576,-0.728,10.132,69.153,37.415,36.055,14.648
-0.402,0.479,-0.69,-5.737,49.927,29.663,36.411,-1.031
-0.559,0.38,-0.649,-1.587,37.292,19.592,33.06,-16.848
-0.586,0.437,-0.541,-6.592,-1.892,4.761,30.954,-28.122
-0.54,0.424,-0.523,14.343,-25.757,-12.024,28.386,-35.248
-0.277,0.536,-0.678,54.443,-85.632,-44.983,29.89,-33.382
-0.089,0.79,-0.81,11.047,-82.764,-43.579,36.495,-23.948
0.192,0.683,-0.677,19.165,-62.012,-42.419,41.184,-11.14
0.501,0.765,-0.582,19.043,-62.012,-46.387,45.083,4.789
0.661,0.686,-0.451,13.245,-53.711,-55.237,46.042,18.147
0.792,0.587,-0.325,10.01,-31.616,-44.006,42.617,32.288
0.857,0.532,-0.234,-10.803,-19.592,-25.452,38.507,42.922
0.875,0.41,-0.179,7.751,-17.822,-17.456,33.086,51.715
0.932,0.344,-0.134,-0.061,-31.921,-25.574,27.727,59.122
0.955,0.255,-0.109,-19.836,-6.165,-4.578,22.734,65.164
0.96,0.289,0.003,14.404,-0.732,0.61,19.115,69.874
aX,aY,aZ,gX,gY,gZ,Roll,Pitch
0.959,0.282,-0.043,8.728,-0.61,-0.122,17.044,72.451
0.993,0.286,-0.054,-21.606,8.667,-2.563,16.02,73.709
0.945,0.281,-0.191,1.892,25.391,20.508,16.4,73.079
0.905,0.342,-0.284,-7.568,44.067,33.691,17.216,70.833
0.821,0.48,-0.374,-1.038,47.791,22.888,20.222,65.657
0.71,0.426,-0.557,-113.464,60.486,17.151,22.67,58.428
0.564,0.443,-0.688,2.319,42.236,19.714,25.46,49.679
0.458,0.484,-0.755,18.86,46.509,22.949,27.732,40.409
0.315,0.645,-0.809,3.784,56.091,29.419,29.884,30.718
0.088,0.569,-0.826,0.305,66.65,38.269,32.26,20.834
-0.129,0.559,-0.785,4.089,65.491,33.386,34.713,10.657
-0.375,0.514,-0.725,-3.845,57.495,28.198,36.014,-1.475
-0.552,0.491,-0.668,-10.62,46.753,27.71,34.058,-14.708
-0.638,0.389,-0.508,-1.709,30.701,13.855,31.597,-27.018
-0.643,0.349,-0.477,3.967,-14.771,-9.827,28.252,-36.808
-0.55,0.458,-0.58,25.574,-41.748,-31.982,27.334,-40.396
-0.3,0.528,-0.478,33.325,-74.585,-55.359,30.293,-38.546
0.097,0.86,-0.694,49.683,-108.215,-68.054,39.849,-24.036
0.408,0.794,-0.665,5.676,-85.938,-64.453,47.231,-5.512
0.678,0.691,-0.491,7.263,-54.81,-58.655,49.076,13.433
0.78,0.559,-0.343,2.625,-37.231,-46.265,44.602,28.348
0.842,0.502,-0.27,-25.818,-19.775,-23.132,38.198,41.137
0.885,0.421,-0.178,10.254,-24.597,-19.958,32.322,51.617
0.927,0.175,-0.187,-3.601,-24.17,-24.536,24.891,60.737
0.953,0.293,-0.116,2.991,-3.54,2.869,20.69,66.331
aX,aY,aZ,gX,gY,gZ,Roll,Pitch
0.943,0.262,-0.088,7.751,2.563,2.991,17.06,70.899
0.935,0.387,-0.147,-38.513,30.457,13.977,16.391,71.746
0.89,0.313,-0.318,6.47,52.612,32.776,18.368,69.078
0.81,0.554,-0.48,5.737,67.261,35.034,22.15,62.853
0.575,0.551,-0.648,-16.663,70.19,41.26,26.741,53.127
0.386,0.531,-0.713,-8.118,57.922,21.484,29.649,42.445
0.172,0.57,-0.827,-16.663,53.406,16.785,33.782,29.298
0.022,0.561,-0.801,-2.563,42.603,14.526,34.645,17.236
-0.09,0.515,-0.771,0.244,18.799,7.324,34.656,7.331
-0.109,0.482,-0.767,4.395,-4.456,-3.723,33.908,-0.088
-0.02,0.577,-0.718,26.306,-32.837,-13.977,34.863,-3.031
0.099,0.628,-0.738,36.987,-47.485,-16.846,36.304,-1.847
0.296,0.692,-0.653,19.897,-55.42,-29.663,39.47,4.092
0.515,0.613,-0.588,-14.648,-55.298,-36.377,41.468,13.594
0.709,0.596,-0.48,12.634,-57.129,-45.288,40.661,24.656
0.855,0.555,-0.358,5.249,-48.95,-43.945,37.881,36.437
0.859,0.432,-0.291,-7.507,-22.217,-18.982,32.842,46.5
0.929,0.397,-0.151,-2.075,-20.325,-19.653,28.893,54.875
0.935,0.272,-0.12,0.977,-17.7,-31.189,24.148,62.103
0.947,0.255,-0.11,-6.287,-9.155,-2.563,19.988,67.581
0.961,0.295,-0.022,28.809,-6.348,0,17.816,71.205
aX,aY,aZ,gX,gY,gZ,Roll,Pitch
0.944,0.304,-0.016,16.418,-0.977,0.671,16.523,73.004
0.951,0.272,-0.052,-23.254,8.545,-5.859,16.475,73.261
0.922,0.337,-0.202,5.676,25.33,22.888,17.675,71.801
0.923,0.411,-0.309,-19.104,51.331,42.603,19.283,68.875
0.807,0.452,-0.451,-5.493,61.035,29.175,21.47,63.618
0.664,0.549,-0.603,-10.498,68.542,29.419,25.5,54.709
0.462,0.527,-0.779,-8.606,77.576,33.997,28.508,44.666
0.211,0.548,-0.854,-27.649,87.83,28.259,31.125,32.278
-0.028,0.481,-0.831,-6.958,65.308,20.569,32.267,19.395
-0.221,0.432,-0.776,0.244,33.203,11.475,31.326,6.376
-0.325,0.399,-0.783,7.935,5.249,-1.343,29.691,-5.537
-0.302,0.481,-0.789,8.606,-6.042,-5.31,28.548,-13.497
-0.184,0.462,-0.692,45.715,-36.072,-14.404,28.922,-16.351
0.054,0.702,-0.806,-2.747,-78.735,-37.842,32.87,-11.6
0.288,0.603,-0.793,25.879,-71.106,-38.269,36.077,-2.167
0.558,0.615,-0.675,35.4,-63.904,-42.236,37.97,10.654
0.682,0.629,-0.528,9.216,-50.659,-40.771,38.373,22.669
0.853,0.491,-0.399,8.362,-46.082,-39.368,34.69,35.431
0.921,0.425,-0.227,8.85,-31.677,-29.114,31.489,46.807
0.981,0.299,-0.095,6.042,-33.447,-30.151,26.748,57.067
0.949,0.277,-0.093,-3.54,-10.193,-3.662,21.469,65.357
0.969,0.224,0.001,18.188,-5.981,1.282,17.685,71.296
aX,aY,aZ,gX,gY,gZ,Roll,Pitch
0.968,0.273,-0.051,6.775,-0.305,0.732,15.48,74.134
0.954,0.243,-0.058,-22.827,8.118,-5.066,14.806,74.898
0.931,0.347,-0.122,-17.029,9.583,10.559,15.836,73.801
0.869,0.32,-0.291,-8.972,44.556,31.921,17.46,70.849
0.839,0.513,-0.422,-14.282,69.214,35.095,21.018,64.939
0.716,0.504,-0.587,10.071,76.843,38.269,24.809,56.687
0.46,0.558,-0.729,-14.16,80.383,43.701,28.269,46.069
0.187,0.575,-0.796,-7.751,72.693,35.156,32.649,33.516
-0.042,0.477,-0.722,-6.165,47.241,19.531,34.077,20.478
-0.14,0.498,-0.753,6.836,11.169,0.305,34.791,7.235
-0.181,0.541,-0.75,0.793,-2.563,-4.7,34.654,-2.73
-0.032,0.587,-0.671,22.827,-41.016,-17.151,35.745,-6.301
0.139,0.529,-0.792,22.278,-69.58,-36.194,35.931,-3.333
0.373,0.711,-0.661,30.151,-53.711,-44.617,39.331,4.596
0.579,0.712,-0.459,13.062,-47.607,-45.227,42.291,16.307
0.745,0.525,-0.335,24.231,-46.631,-54.199,40.479,28.782
0.91,0.473,-0.266,-11.414,-45.227,-53.223,37.776,41.281
0.908,0.498,-0.173,3.906,-15.503,-20.874,33.2,51.164
0.907,0.321,-0.068,-22.766,-3.723,-0.732,26.979,60
0.947,0.297,-0.107,-8.606,0.793,3.54,23.124,65.104
0.955,0.324,-0.081,19.287,-4.639,-1.221,21.055,67.986
aX,aY,aZ,gX,gY,gZ,Roll,Pitch
0.94,0.282,-0.076,3.357,2.747,0.732,18.018,71.306
0.93,0.341,-0.141,-24.292,15.869,14.343,18.159,70.869
0.912,0.319,-0.283,-7.324,30.579,23.01,18.507,69.555
0.856,0.489,-0.353,-3.052,47.852,20.325,20.956,65.394
0.755,0.56,-0.516,6.653,60.791,28.32,24.874,58.173
0.572,0.52,-0.698,-10.071,70.313,42.786,27.647,49.496
0.366,0.523,-0.77,-6.775,77.82,39.001,31.191,39.094
0.118,0.526,-0.773,-16.357,68.054,25.208,32.856,27.457
-0.091,0.553,-0.851,-7.629,48.889,16.785,33.246,14.421
-0.271,0.474,-0.82,-8.423,41.687,17.639,32.856,1.815
-0.364,0.401,-0.749,-0.854,27.954,10.925,31.017,-9.225
-0.356,0.431,-0.655,5.981,-18.066,-7.019,29.704,-16.758
-0.311,0.454,-0.78,14.771,-41.626,-11.292,28.264,-20.492
-0.094,0.636,-0.79,36.072,-44.556,-13.428,31.15,-17.6
0.103,0.564,-0.688,32.593,-56.458,-34.485,34.914,-10.396
0.38,0.657,-0.691,-5.859,-68.665,-50.537,38.076,1.196
0.568,0.68,-0.628,20.447,-54.932,-38.025,40.639,14.22
0.739,0.636,-0.433,6.714,-40.466,-28.87,39.978,26.951
0.796,0.5,-0.324,-0.122,-41.504,-31.372,37.384,37.566
0.846,0.515,-0.293,10.193,-30.09,-36.621,34.479,45.765
0.911,0.424,-0.113,16.968,-10.803,-4.517,30.711,54.164
0.836,0.438,-0.162,-26.794,0.122,5.066,28.172,58.489
0.945,0.321,-0.134,10.925,0.244,-0.732,25.215,62.555
0.897,0.329,-0.123,-10.315,-15.381,-7.019,22.639,65.926
0.94,0.347,-0.096,-8.301,-7.385,-6.775,21.464,67.131
0.948,0.343,-0.068,-14.404,-6.714,-9.644,19.661,69.354
0.95,0.222,-0.096,13.245,1.892,-1.282,18.308,70.81
0.962,0.266,-0.015,11.841,1.465,2.502,17.196,72.326
aX,aY,aZ,gX,gY,gZ,Roll,Pitch
0.949,0.278,-0.072,5.066,0.061,1.77,16.203,73.374
0.943,0.364,-0.092,-33.386,9.766,3.357,16.514,72.989
0.9,0.381,-0.22,-29.114,35.95,29.968,18.856,70.226
0.857,0.479,-0.384,-15.381,55.664,36.499,21.938,65.19
0.708,0.527,-0.591,-5.554,66.284,36.804,25.676,57.469
0.519,0.547,-0.702,-3.723,76.538,38.757,28.673,47.763
0.255,0.547,-0.809,-19.531,83.679,36.377,31.597,35.697
0.018,0.502,-0.774,-9.155,63.782,21.912,33.196,22.76
-0.177,0.494,-0.767,7.69,37.354,15.381,33.862,9.426
-0.193,0.424,-0.736,15.869,-8.118,-5.432,32.494,-1.523
-0.194,0.525,-0.748,22.705,-19.531,-13.794,32.32,-8.638
0.007,0.605,-0.729,30.396,-49.805,-28.381,34.035,-8.767
0.215,0.717,-0.677,21.179,-56.519,-37.476,38.119,-2.572
0.434,0.783,-0.592,7.507,-57.312,-45.715,43.362,6.913
0.612,0.756,-0.464,20.386,-36.926,-41.138,45.939,18.556
0.753,0.582,-0.316,8.179,-30.884,-44.128,44.66,29.902
0.818,0.559,-0.276,12.634,-25.757,-32.959,40.925,39.739
0.884,0.418,-0.201,3.479,-13.55,-17.944,34.951,49.321
0.936,0.344,-0.055,20.691,-27.954,-27.893,28.585,58.413
0.957,0.227,-0.046,5.31,-24.597,-31.433,23.046,65.301
0.971,0.285,-0.029,-2.502,-5.066,4.15,18.721,70.631
aX,aY,aZ,gX,gY,gZ,Roll,Pitch