aX,aY,aZ,gX,gY,gZ,Roll,Pitch
-0.093,1.003,0.11,20.691,1.099,0.916,81.792,-5.288
-0.085,0.964,0.14,2.869,1.526,-0.122,81.125,-5.136
-0.088,0.978,0.076,-11.536,2.197,-4.15,81.868,-5.129
-0.08,0.965,0.105,6.042,0.916,-0.488,81.958,-5.024
-0.078,0.973,0.102,4.517,1.404,-0.671,82.134,-4.842
-0.092,0.994,0.111,7.324,3.723,-2.197,82.439,-4.917
-0.118,0.96,0.128,11.597,15.747,-1.709,81.551,-5.372
-0.086,0.96,0.136,12.085,8.301,-1.16,81.126,-5.467
-0.028,0.969,0.192,7.568,5.737,-0.122,80.434,-4.734
-0.024,0.955,0.201,2.991,6.287,-2.136,79.599,-3.77
-0.054,0.97,0.191,4.883,7.263,-2.38,79.055,-2.819
-0.025,0.961,0.191,7.935,5.249,-2.258,78.481,-1.921
-0.008,0.959,0.211,4.7,6.897,-0.854,78.235,-1.628
-0.004,0.969,0.205,5.066,8.484,-1.77,78.257,-1.329
-0.018,0.965,0.225,5.371,8.301,-1.404,77.796,-0.807
-0.03,0.974,0.221,1.648,2.319,-2.136,77.412,-0.877
0.028,0.946,0.23,2.991,2.747,1.892,77.12,-0.35
0,0.957,0.249,6.104,6.104,2.38,76.454,-0.29
0.013,0.953,0.233,4.028,2.38,2.38,76.304,0.167
0.008,0.959,0.244,5.066,2.869,0.916,75.906,0.731
0.005,0.955,0.249,3.54,1.038,-0.061,75.682,0.383
-0.029,0.962,0.249,2.441,-1.648,-1.099,75.704,-0.039
-0.013,0.961,0.257,3.662,-0.61,-1.892,75.396,-0.415
0.001,0.953,0.264,3.052,-0.366,-2.258,75.089,-0.526
0.026,0.942,0.255,-0.61,-0.61,-1.343,74.971,-0.223
0.024,0.946,0.25,2.502,0.427,0.244,74.891,0.543
0.012,0.949,0.252,2.258,0.549,-0.122,74.901,0.907
0.01,0.954,0.252,0.183,1.099,1.221,75.068,1.037
0.013,0.955,0.249,2.686,1.709,0.305,75.218,0.85
-0.002,0.947,0.263,-0.793,-0.183,-0.122,75.049,0.476
0.011,0.949,0.229,3.418,-0.671,-1.038,75.375,0.462
0.013,0.947,0.236,4.883,0,-1.038,75.575,0.507
0.017,0.94,0.25,9.277,1.099,-1.099,75.492,0.571
0.026,0.947,0.253,4.944,-0.427,-1.038,75.62,0.987
0.031,0.948,0.254,3.479,-1.648,-0.549,75.242,1.28
0.023,0.949,0.261,2.93,0.305,0.061,74.881,1.431
0.015,0.95,0.254,2.258,0.854,0.244,74.873,1.395
0.024,0.928,0.267,9.399,4.517,-1.465,74.599,1.359
0.028,0.935,0.268,2.319,0.122,0.549,74.351,1.308
0.032,0.949,0.265,-1.343,-2.502,3.296,74.287,1.435
-0.007,0.954,0.251,-0.793,-1.465,-0.549,74.368,1.105
0.009,0.95,0.228,-8.911,-4.883,0.427,75.02,0.886
0.008,0.952,0.21,2.319,-0.977,-2.075,75.918,0.597
0.027,0.948,0.209,-4.211,-4.456,-0.305,76.712,0.524
0.01,0.97,0.207,1.892,-0.183,-0.305,77.388,0.777
0.003,0.969,0.215,4.211,1.343,0.61,77.642,0.694
0.02,0.957,0.208,3.235,0.366,0.854,77.667,0.871
0.019,0.954,0.229,2.991,1.648,0.427,77.416,0.762
0.001,0.949,0.211,5.066,2.319,3.479,77.296,0.643
0.015,0.959,0.223,0.671,-0.305,1.038,77.139,0.811
0.009,0.953,0.229,2.502,2.319,0.244,76.839,0.646
-0.005,0.954,0.224,2.991,0.732,0.061,76.92,0.289
0.003,0.959,0.233,4.089,1.16,-0.366,76.641,0.315
0.008,0.956,0.227,4.456,2.38,-0.122,76.577,0.212
-0.007,0.957,0.226,2.38,1.221,0.549,76.641,-0.012
0.008,0.955,0.226,3.357,0.854,-0.793,76.604,0.172
0.037,0.952,0.246,5.31,4.333,3.052,76.381,0.658
-0.014,0.956,0.235,-2.258,3.357,2.93,76.28,0.349
-0.012,0.974,0.212,1.16,-0.061,1.038,76.532,0.269
-0.023,0.962,0.218,1.465,0.122,0,76.674,-0.177
-0.017,0.967,0.227,2.441,0.488,-0.793,76.955,-0.946
0.001,0.961,0.225,3.235,1.282,-0.732,77.12,-0.73
0.005,0.968,0.236,6.775,5.981,2.441,76.776,-0.485
-0.006,0.955,0.241,-1.099,1.465,0.427,76.44,-0.24
-0.019,0.965,0.243,-1.282,0.916,0.977,76.205,-0.275
-0.016,0.967,0.233,1.465,1.831,0.366,76.106,-0.527
0.017,0.961,0.217,0.183,-1.953,0.061,76.353,-0.35
-0.012,0.961,0.236,-2.38,-1.892,0.977,76.441,-0.432
-0.023,0.954,0.24,6.104,3.662,-0.977,76.451,-0.494
-0.025,0.959,0.225,3.906,1.709,-0.671,76.535,-0.617
0.001,0.96,0.228,0.183,-1.526,2.075,76.357,-0.849
-0.012,0.955,0.235,-0.061,-2.319,-0.732,76.355,-0.85
-0.014,0.956,0.228,1.587,-2.197,0.366,76.536,-0.712
-0.009,0.959,0.223,1.587,-0.061,-0.854,76.569,-0.487
-0.006,0.963,0.209,0.977,-3.052,-1.343,76.844,-0.592
-0.016,0.959,0.225,4.333,1.221,-0.183,76.99,-0.645
-0.027,0.96,0.221,2.808,-1.648,-2.136,77.095,-0.836
-0.016,0.956,0.23,1.892,-1.343,-1.526,76.976,-0.929
0,0.957,0.221,0.122,-2.869,-1.404,76.792,-0.842
0.017,0.962,0.217,1.221,-2.93,-1.099,76.941,-0.373
-0.001,0.957,0.221,3.296,-0.183,-1.77,76.929,0.005
-0.023,0.959,0.216,1.831,-3.296,-0.61,77.138,-0.098
0.013,0.956,0.236,4.639,-0.122,-0.793,76.923,0.087
0.025,0.955,0.236,3.174,2.502,0.183,76.623,0.203
0.016,0.958,0.232,0.549,-0.061,1.282,76.462,0.455
0,0.965,0.227,2.197,-0.854,0.977,76.319,0.778
0.005,0.969,0.225,2.563,-0.122,-0.793,76.528,0.658
-0.005,0.952,0.232,1.099,-1.465,-0.854,76.588,0.225
0.023,0.953,0.227,4.089,-1.099,-0.793,76.652,0.319
0.01,0.952,0.235,0.061,-1.282,-0.61,76.486,0.464
-0.002,0.951,0.228,2.991,-1.465,-2.014,76.381,0.364
0.001,0.953,0.228,1.221,-2.502,-1.892,76.448,0.462
0.011,0.961,0.224,0.061,-3.784,-1.526,76.524,0.289
0.008,0.958,0.216,2.258,-1.282,-1.831,76.816,0.26
0.002,0.956,0.229,2.319,-1.038,-0.122,76.816,0.326
-0.038,0.945,0.226,3.113,0.61,-0.122,76.808,-0.242
0.024,0.947,0.225,3.357,-0.854,1.038,76.734,-0.055
0.011,0.962,0.24,15.686,-1.709,1.038,76.414,-0.004
aX,aY,aZ,gX,gY,gZ,Roll,Pitch
0.014,0.925,0.284,10.986,1.404,1.282,75.52,0.172
0.007,0.935,0.288,-1.221,4.517,-0.916,74.581,0.827
0.026,0.974,0.207,4.211,0.793,1.16,74.946,0.851
0.014,0.962,0.227,-2.441,-0.488,2.075,75.127,0.89
0.01,0.958,0.215,-0.305,1.099,1.282,76.225,0.832
-0.006,0.969,0.219,-0.671,-1.404,0.549,77.33,0.641
-0.028,0.987,0.193,15.93,4.089,1.953,77.579,-0.144
0.011,0.94,0.263,6.409,6.836,-0.732,76.994,-0.184
-0.004,0.918,0.27,11.597,10.559,-0.854,76.085,-0.392
0.011,0.94,0.254,10.315,6.714,-0.427,75.489,-0.14
0.021,0.941,0.287,5.066,5.615,0.427,73.969,0.592
0.034,0.969,0.295,5.249,7.263,0.122,73.628,0.919
0.052,0.934,0.281,5.676,5.615,0.061,73.477,1.722
0.019,0.938,0.282,-4.517,3.357,0.549,73.062,1.833
0.051,0.938,0.281,6.653,4.944,0.305,73.079,2.27
0.047,0.962,0.288,0.854,3.662,-0.549,73.113,2.47
0.035,0.927,0.3,4.395,2.319,-2.258,72.848,2.23
0.058,0.948,0.284,0.366,0.305,1.099,72.784,2.79
0.051,0.936,0.279,1.038,3.235,0.366,72.807,2.785
0.078,0.938,0.273,-0.427,3.113,-0.427,72.84,3.251
0.196,0.932,0.261,0.061,1.282,-2.38,72.806,5.595
0.062,0.947,0.249,4.15,0.916,-1.16,73.251,5.668
-0.056,0.902,0.238,1.892,-0.183,0.793,74.124,4.16
0.073,0.946,0.282,4.028,3.296,0.671,74.046,4.075
0.056,0.947,0.272,2.441,2.197,1.526,74.329,1.996
0.062,0.941,0.267,-0.977,0.061,1.648,74.057,1.985
0.079,0.931,0.262,-2.075,-3.052,2.197,73.491,3.933
0.044,0.957,0.265,-2.441,-3.479,1.648,73.864,3.51
0.032,0.956,0.252,4.028,-0.366,-0.916,74.254,3.165
0.041,0.946,0.257,2.441,-0.061,-0.854,74.461,2.862
0.05,0.949,0.25,5.188,0.244,-1.526,74.758,2.434
0.058,0.949,0.257,1.099,-0.122,0.977,74.805,2.639
0.055,0.943,0.258,-0.488,0.854,0.671,74.612,2.981
0.055,0.963,0.244,-1.648,-1.099,-0.549,74.809,3.18
0.057,0.955,0.234,1.404,-0.671,-1.404,75.042,3.278
0.047,0.957,0.234,1.526,-0.122,-0.061,75.414,3.113
0.058,0.961,0.241,-1.648,-0.854,1.648,75.701,3.142
0.064,0.956,0.235,1.648,0.977,0.61,75.773,3.271
0.04,0.955,0.23,-0.732,-0.122,-0.305,75.876,3.025
0.035,0.97,0.225,0.916,-0.916,-2.075,76.084,2.85
0.073,0.954,0.217,2.747,-1.099,-1.526,76.337,3.083
0.074,0.95,0.244,4.333,0.977,1.221,76.167,3.242
0.035,0.958,0.216,1.953,-1.282,-1.282,76.38,3.167
0.067,0.949,0.237,6.531,1.343,-1.221,76.028,3.637
0.069,0.947,0.241,1.831,1.038,1.709,75.697,3.576
-0.006,0.982,0.234,1.892,0.732,-0.427,76.179,2.387
0.058,0.95,0.251,13.306,5.249,-2.136,75.611,2.716
0.076,0.941,0.238,0.427,-1.038,-2.747,75.554,2.852
0.079,0.955,0.245,5.432,0.366,-2.686,75.494,2.994
0.105,0.943,0.241,2.563,0,-0.244,74.859,4.638
0.1,0.951,0.235,-3.357,-1.282,1.099,74.879,5.26
0.087,0.959,0.199,-3.357,-1.099,-1.343,75.402,5.41
0.108,0.92,0.23,2.258,0.488,3.906,75.309,5.889
0.067,0.97,0.208,-0.183,1.221,0.305,76.054,5.3
0.085,0.953,0.222,1.77,1.16,0.427,76.312,5.086
0.082,0.958,0.223,1.831,1.648,-0.061,76.016,5.013
0.064,0.965,0.212,-1.404,1.16,1.953,76.623,4.322
0.084,0.953,0.211,-0.122,0.732,3.235,76.436,4.589
0.037,0.962,0.197,-0.183,0.427,1.038,77.024,3.888
0.063,0.97,0.182,0.488,-1.038,0.977,77.695,3.615
0.059,0.965,0.195,3.479,1.892,2.197,77.95,3.546
0.033,0.972,0.192,1.953,1.282,0.854,78.47,2.792
0.054,0.962,0.192,2.625,0.854,0.122,78.475,3.038
0.078,0.966,0.207,4.089,3.601,0.61,78.058,3.244
0.054,0.958,0.188,4.822,2.747,0.427,78.146,3.182
0.058,0.951,0.185,-7.446,0.244,2.014,78.072,3.57
0.039,0.961,0.171,-1.587,1.526,1.587,78.417,3.351
0.042,0.954,0.162,-3.479,-1.587,3.845,79.157,2.85
0.022,0.976,0.173,-0.549,-0.244,1.099,79.54,2.364
0.04,0.961,0.157,3.601,1.282,1.099,80.014,2.096
0.013,0.956,0.128,-5.127,-4.15,2.808,80.683,1.724
0.02,0.983,0.125,0.122,-0.671,2.319,81.329,1.388
-0.015,0.964,0.14,1.648,2.686,0,81.85,0.862
0,0.979,0.122,2.563,1.77,-0.427,82.442,0.28
0.017,1.005,0.108,-2.014,-3.906,0.793,82.825,0.339
0.022,0.974,0.117,5.676,3.235,-0.427,82.921,0.364
-0.002,0.998,0.125,0.793,0.671,0.305,83.177,0.546
0.013,0.964,0.117,-3.784,-4.028,0.916,83.198,0.736
0.003,0.989,0.109,-0.732,-1.343,0.732,83.175,0.531
0.015,0.979,0.127,3.662,1.648,-0.427,83.054,0.426
0.004,0.981,0.12,-2.747,-3.235,1.831,83.097,0.513
-0.001,0.988,0.107,1.831,2.319,0.671,83.295,0.302
0.006,0.993,0.092,1.892,1.587,-1.831,83.544,0.344
-0.006,0.978,0.098,1.709,-2.014,-0.916,83.967,0.042
-0.002,0.978,0.11,-0.488,-2.014,1.831,84.093,-0.042
0.006,0.976,0.104,3.479,1.465,0.183,84.127,0.066
0.006,0.973,0.088,0,0.122,-0.427,84.157,0.071
0.02,0.977,0.084,3.113,0.488,0.549,84.334,0.448
-0.001,0.974,0.089,-0.122,0.549,2.197,84.635,0.462
-0.045,0.982,0.09,2.93,-2.136,1.526,84.85,-0.291
-0.037,0.989,0.104,7.874,-3.357,1.343,84.573,-0.923
aX,aY,aZ,gX,gY,gZ,Roll,Pitch
-0.038,0.943,0.123,11.169,-0.305,-0.061,83.782,-1.776
-0.028,0.962,0.154,-9.216,0.427,-1.16,82.749,-2.177
-0.025,1.016,0.08,5.066,1.343,1.221,83.035,-1.873
-0.019,0.976,0.085,-1.038,-0.183,0.732,83.34,-1.616
-0.028,0.987,0.094,1.648,1.709,-0.671,83.854,-1.459
-0.047,1.005,0.117,14.038,6.653,-3.601,84.35,-1.72
0.002,0.974,0.131,11.047,4.7,0.671,83.683,-1.335
0.012,0.965,0.138,5.615,4.578,0.061,82.989,-0.89
-0.008,0.966,0.165,6.165,7.69,0.244,81.955,-0.593
0.007,0.969,0.173,4.333,6.409,-1.648,81.094,0.191
0.01,0.965,0.174,5.737,6.042,-1.282,80.445,0.3
0.02,0.979,0.184,4.456,6.287,-1.831,79.816,0.413
0.067,0.965,0.191,6.042,5.859,-1.404,79.348,1.494
0.066,0.945,0.204,3.296,3.784,-1.038,78.686,2.358
0.076,0.939,0.193,5.371,3.662,-0.732,78.112,3.341
0.036,0.959,0.207,5.188,3.235,-0.183,77.672,3.594
0.034,0.957,0.222,4.822,2.93,-1.343,77.352,3.122
0.049,0.959,0.212,-0.427,0.793,-1.953,77.351,2.865
0.052,0.967,0.206,1.343,1.343,-0.854,77.341,2.487
0.069,0.955,0.226,5.188,3.479,-0.244,76.964,2.972
0.047,0.955,0.228,3.113,1.77,1.16,76.834,3.155
0.041,0.957,0.229,0.122,-0.427,1.282,76.622,3.038
0.062,0.965,0.217,2.197,-0.732,1.038,76.424,3.19
0.068,0.958,0.216,-1.16,-2.869,-0.061,76.566,3.168
0.053,0.959,0.216,0.488,-1.465,-0.305,76.717,3.255
0.046,0.96,0.203,1.709,-0.854,0.305,77.068,3.326
0.043,0.964,0.211,2.502,0.916,0.61,77.214,3.057
0.059,0.96,0.218,3.601,1.77,-0.916,77.233,2.923
0.057,0.956,0.21,-0.183,0.244,0.061,77.296,2.977
0.039,0.971,0.199,1.221,0.549,-0.549,77.397,2.869
0.065,0.981,0.192,1.343,-0.244,1.404,77.64,3.176
0.071,0.963,0.212,4.089,1.221,-0.366,77.677,3.349
0.049,0.969,0.196,3.113,-0.366,0.916,77.934,3.228
0.041,0.959,0.216,1.038,-0.793,-1.16,77.664,3.272
0.054,0.96,0.205,1.343,-0.977,-0.916,77.457,3.13
0.049,0.967,0.224,5.188,2.075,-2.258,77.383,2.81
0.072,0.95,0.22,4.639,0.305,-2.014,76.915,3.161
0.076,0.939,0.222,1.709,-1.343,-4.272,76.642,3.683
0.09,0.947,0.235,5.554,0.305,-1.587,76.049,4.209
0.095,0.945,0.23,-1.099,-0.61,2.258,75.68,4.906
0.086,0.956,0.224,1.099,0,1.343,75.573,5.09
0.095,0.969,0.22,1.282,0.549,-0.183,75.609,5.325
0.068,0.963,0.216,2.869,1.465,0.793,76.022,4.994
0.092,0.944,0.218,2.808,0.977,0.305,76.189,4.949
0.088,0.943,0.212,-2.258,-0.061,2.441,76.299,5.006
0.067,0.974,0.214,-1.282,0.61,3.174,76.532,4.597
0.054,0.967,0.207,-0.671,1.465,3.174,76.735,4.39
0.061,0.965,0.196,3.418,1.343,1.465,77.239,3.925
0.06,0.963,0.2,0.366,0.854,1.282,77.58,3.501
0.055,0.973,0.181,0.732,0.549,0.854,78.065,3.339
0.041,0.962,0.18,0.916,0.061,0.549,78.475,3.149
0.05,0.974,0.189,2.991,1.221,0.244,78.644,2.991
0.06,0.96,0.191,5.31,3.235,1.648,78.762,3
0.044,0.968,0.202,-0.061,2.747,2.075,78.509,2.836
0.039,0.979,0.196,2.563,1.77,0.183,78.346,2.804
0.044,0.959,0.173,5.676,1.77,-2.197,78.535,2.728
0.05,0.956,0.2,3.906,2.441,0.366,78.432,2.576
0.06,0.968,0.172,-5.249,-2.869,2.014,78.786,2.818
0.052,0.973,0.185,4.028,2.38,0.61,78.866,3.014
0.062,0.957,0.168,-3.845,0.977,2.93,78.857,3.281
0.012,0.976,0.171,4.15,0.732,0.183,79.459,2.715
0.026,0.969,0.16,2.319,-0.61,1.404,79.742,2.217
0.051,0.968,0.168,2.38,0.549,0.732,79.965,2.198
0.038,0.969,0.165,0.854,-1.038,0.793,80.113,1.835
-0.008,0.983,0.172,-1.465,-3.723,3.296,80.17,1.543
0.04,0.971,0.147,2.625,0.793,-0.244,80.331,1.754
0.026,0.967,0.164,2.502,0,-0.854,80.452,1.397
0.022,0.969,0.163,4.761,-0.793,2.014,80.5,1.163
0.011,0.958,0.187,5.432,-1.404,1.221,80.188,1.453
0.03,0.978,0.161,-2.625,-5.554,-1.16,80.024,1.293
0.027,0.976,0.152,-0.427,-8.667,-0.061,80.212,1.309
0.01,0.978,0.145,1.221,-3.906,-0.061,80.518,1.135
-0.002,0.973,0.145,0.061,-3.723,-0.549,81.171,0.934
-0.006,0.979,0.139,0,-2.38,-0.183,81.53,0.413
0.004,0.985,0.135,5.066,0.122,-0.122,81.806,0.078
0.005,0.981,0.159,4.15,0.061,0.183,81.608,0.004
0.025,0.97,0.155,3.357,1.038,0.732,81.455,0.397
-0.014,0.986,0.158,-3.052,-4.028,0.854,81.208,0.285
-0.008,0.98,0.143,0.305,-1.953,0.366,81.088,0.115
-0.005,0.975,0.157,0,0.244,-1.221,81.111,-0.023
0.004,0.962,0.153,7.202,2.075,-0.488,81.112,-0.32
-0.019,0.966,0.157,3.723,-1.648,1.099,81.072,-0.395
-0.01,0.982,0.204,22.461,-2.502,1.16,80.201,-0.426
aX,aY,aZ,gX,gY,gZ,Roll,Pitch
-0.022,0.973,0.187,7.202,-0.061,0.61,79.753,-0.682
-0.019,0.959,0.178,-20.081,3.906,-1.038,79.361,-1.019
-0.015,0.968,0.141,2.93,0.854,2.686,79.606,-0.964
-0.03,0.99,0.121,4.639,3.479,2.014,80.763,-1.255
-0.025,0.977,0.148,8.24,7.324,-1.465,81.324,-1.291
-0.031,0.952,0.155,12.146,6.897,-2.319,81.609,-1.476
0.006,0.968,0.166,10.742,9.949,0,81.295,-1.158
-0.018,0.961,0.206,10.437,8.667,0.61,80.03,-0.986
0,0.96,0.226,3.54,6.958,-2.136,78.888,-0.625
0.056,0.956,0.22,7.324,5.127,-2.014,77.968,0.648
0.01,0.963,0.243,3.784,4.639,-1.343,76.854,0.692
0.026,0.955,0.245,5.615,4.7,-0.305,76.24,1.327
0.058,0.959,0.245,1.221,0.977,1.953,75.858,2.177
0.035,0.958,0.252,-1.892,-0.427,0.671,75.456,1.875
0.023,0.972,0.241,1.526,1.221,-0.427,75.493,2.058
0.026,0.966,0.25,4.211,3.479,-0.427,75.467,2.046
0.035,0.951,0.262,2.991,4.761,-1.282,75.262,1.703
0.057,0.95,0.259,2.441,5.066,-1.709,75.099,2.021
0.07,0.958,0.259,1.709,3.845,-0.732,74.694,2.708
0.054,0.95,0.263,4.333,4.517,-0.305,74.377,3.12
0.058,0.951,0.273,3.235,5.005,-0.732,74.146,3.453
0.081,0.927,0.278,3.357,3.601,0.183,73.728,3.817
0.062,0.938,0.279,2.136,2.014,0.977,73.401,3.709
0.058,0.939,0.271,0.61,0.549,2.991,73.238,3.775
0.073,0.95,0.272,0.244,0.671,2.686,73.202,4.002
0.052,0.947,0.268,1.282,0.427,-0.122,73.512,3.563
0.038,0.943,0.257,-2.869,-2.441,0.122,73.903,3.224
0.055,0.953,0.25,1.465,-1.16,-0.854,74.247,3.179
0.068,0.944,0.254,3.052,0.305,-0.671,74.487,3.104
0.063,0.954,0.24,-3.357,-1.221,-0.183,74.871,3.261
0.073,0.947,0.237,2.747,0.977,0.427,75.041,3.762
0.057,0.946,0.238,1.709,1.038,0.427,75.186,3.8
0.007,0.96,0.247,15.503,1.709,0.122,75.538,2.906
0.074,0.951,0.232,1.16,0.488,1.77,75.597,3.073
0.048,0.974,0.223,1.953,1.282,0.793,75.958,2.7
0.049,0.953,0.227,2.991,-0.488,0,76.153,2.575
0.06,0.959,0.222,0.488,-0.854,-0.854,76.34,3.347
0.044,0.953,0.227,1.099,-0.977,-0.854,76.515,2.904
0.046,0.96,0.217,2.197,-0.732,-0.916,76.558,2.887
0.08,0.963,0.214,1.465,-0.061,-0.244,76.655,3.336
0.049,0.951,0.221,2.075,0.671,0.427,76.677,3.182
0.03,0.96,0.224,7.08,3.052,-1.709,76.795,2.982
0.078,0.952,0.217,3.052,-0.061,-1.465,76.661,3.46
0.063,0.971,0.22,1.038,-0.122,0,76.677,3.214
0.06,0.957,0.207,2.869,0.427,0.305,76.838,3.381
0.036,0.952,0.218,1.587,-0.244,-0.061,76.867,3.479
0.059,0.962,0.206,2.197,1.404,2.258,77.118,3.194
0.043,0.953,0.211,0.671,0.244,1.831,77.247,2.909
0.065,0.933,0.205,2.625,0.854,0.488,77.187,2.989
0.094,0.99,0.184,4.15,0.977,-1.099,77.552,3.803
0.101,1.023,0.194,2.38,-0.488,-1.099,77.712,4.344
0.048,1.017,0.201,4.15,-0.183,-1.892,78.01,4.355
0.1,0.944,0.206,4.395,0.671,-0.671,77.845,4.846
0.07,0.994,0.212,1.221,-0.427,-0.549,77.62,4.504
0.054,0.965,0.202,0.793,1.099,3.052,77.553,3.9
0.063,0.959,0.203,1.16,0.488,-0.61,77.279,4.167
0.072,0.965,0.202,2.563,0.916,-0.61,77.528,3.733
0.07,0.961,0.199,-0.305,-0.183,1.404,77.599,3.767
0.105,0.98,0.19,1.77,0,0.61,77.561,4.495
0.058,0.96,0.204,-1.892,-0.305,1.587,77.577,4.423
0.054,0.977,0.19,-0.854,-0.244,1.221,77.853,4.157
0.048,0.97,0.182,6.226,1.099,2.075,78.218,3.832
0.029,0.968,0.193,0.366,0.977,0.305,78.457,2.737
0.052,0.968,0.174,0.488,-0.183,0.793,78.913,2.652
0.039,0.966,0.166,1.526,0.366,1.343,79.265,2.446
0.073,0.972,0.156,0.854,0.183,1.221,79.54,2.808
0.041,0.955,0.178,7.874,6.226,1.831,79.667,2.99
0.005,0.969,0.155,-0.549,-0.244,2.136,80.103,2.31
0.026,0.97,0.15,1.282,-0.732,-0.183,80.39,2.115
0.049,0.975,0.131,-4.761,-2.502,0.488,80.817,1.773
0.02,0.974,0.132,1.526,1.038,0.061,81.556,1.465
0.019,0.969,0.123,0.732,0.122,0.427,81.981,1.664
0.035,0.975,0.131,2.808,2.686,0.366,82.219,1.795
0.02,0.987,0.118,-0.732,-0.244,0.793,82.522,1.359
0.034,0.982,0.112,0.366,-0.488,1.77,82.789,1.564
0.02,0.98,0.109,3.723,1.831,-0.793,82.991,1.578
0.015,0.981,0.087,0,0.732,0.488,83.685,1.291
-0.006,0.986,0.088,-0.549,1.587,0.671,84.172,0.917
-0.01,0.996,0.072,-0.122,-0.305,-0.488,84.822,0.283
0.025,0.975,0.065,1.221,0.305,0.854,85.454,0.354
0.029,0.989,0.07,2.075,-0.305,-0.61,85.692,0.557
0.021,0.972,0.102,2.563,0.549,0.427,85.416,0.956
0.007,0.981,0.086,0.488,1.038,1.526,85.15,1.208
0.011,0.984,0.091,4.089,3.113,-0.183,84.83,1.004
0.03,0.977,0.094,2.991,2.93,1.343,84.457,1.023
0.011,0.986,0.089,-0.122,-1.16,1.282,84.679,0.867
0.02,0.985,0.087,10.071,0.732,-2.075,84.634,1.043
0.021,0.977,0.104,-3.54,-4.395,-1.099,84.423,1.18
0.013,0.989,0.093,-1.77,-5.066,0.427,84.513,0.932
-0.019,0.996,0.069,6.592,-1.77,1.648,84.876,0.507
0.005,0.983,0.081,8.301,2.441,-1.648,84.986,0.302
0.019,0.979,0.104,2.319,1.709,0.305,84.984,0.281
0.026,0.98,0.104,6.409,3.418,-0.183,84.8,0.463
0.012,0.973,0.113,6.653,4.272,0.061,84.083,0.915
0.006,0.983,0.123,2.625,1.343,1.282,83.474,0.921
0.03,0.976,0.126,2.93,2.136,-0.732,83.136,1.079
0.032,0.97,0.128,0.977,1.282,-0.916,82.753,1.167
0.008,0.981,0.119,4.822,-0.916,-0.366,82.693,1.1
0,0.971,0.139,5.371,-1.282,0.061,82.455,1.009
-0.01,0.972,0.151,10.132,-3.418,1.038,82.143,0.425
aX,aY,aZ,gX,gY,gZ,Roll,Pitch
-0.01,0.979,0.112,7.202,0.122,0.671,82.402,-0.188
-0.013,0.963,0.1,-15.015,4.028,-2.075,82.626,-0.493
-0.001,0.997,0.042,6.836,1.282,1.16,84.075,-0.505
-0.014,0.989,0.04,2.93,0,1.099,85.69,-0.563
-0.011,0.99,0.042,0.366,1.892,0.244,86.713,-0.574
0.003,0.99,0.052,12.512,8.057,-2.075,87.442,-0.349
-0.039,0.974,0.099,10.315,8.301,-2.014,86.511,-0.896
0.015,0.93,0.091,10.681,7.385,3.418,85.79,-0.485
0.022,0.981,0.13,4.822,6.348,1.77,84.504,-0.002
0.005,0.981,0.136,4.578,9.094,-0.549,83.271,0.036
0.024,0.974,0.138,4.395,7.385,-0.305,82.634,0.96
0.054,0.908,0.148,4.456,4.639,-0.183,81.677,1.54
0.003,0.995,0.157,3.601,3.296,0.854,81.367,1.257
-0.003,0.973,0.162,4.333,5.127,-0.549,80.984,1.133
0.011,0.961,0.151,4.883,2.869,-1.221,80.79,0.954
0.019,0.985,0.151,5.371,4.272,-1.526,80.967,0.431
0.039,0.96,0.163,3.601,4.822,-1.709,80.765,0.956
0.035,0.975,0.17,2.563,2.869,-2.075,80.589,1.52
0.048,0.972,0.161,-1.16,1.221,-1.648,80.375,2.045
0.052,0.974,0.172,4.639,3.418,-2.197,79.951,2.529
0.063,0.955,0.169,1.343,1.282,-0.671,79.766,2.883
0.073,0.965,0.167,0.854,0.671,1.648,79.61,3.434
0.037,0.974,0.174,1.648,0.183,1.16,79.491,3.265
0.059,0.968,0.164,4.089,-1.16,0.305,79.553,3.373
0.073,0.967,0.173,2.93,-0.122,-0.183,79.486,3.508
0.056,0.975,0.179,1.77,-0.488,0.366,79.429,3.259
0.041,0.97,0.179,3.723,-0.244,-0.244,79.33,3.32
0.046,0.969,0.183,2.808,-1.099,-0.61,79.128,3.13
0.046,0.969,0.185,3.723,0.671,0.305,79.069,2.742
0.058,0.97,0.175,2.38,0.366,-0.244,79.102,2.777
0.066,0.962,0.179,1.953,-0.549,0.671,78.98,3.145
0.047,0.97,0.184,1.221,-0.793,0.427,78.96,3.161
0.048,0.975,0.172,1.343,-1.099,0,79.141,3.188
0.052,0.967,0.179,2.075,-0.671,-1.831,79.109,3.091
0.069,0.975,0.166,1.282,-1.404,-1.221,79.31,3.134
0.067,0.964,0.18,2.136,-0.305,-1.16,79.266,3.419
0.071,0.97,0.177,2.319,-0.854,-0.916,79.083,3.753
0.079,0.972,0.168,1.892,-0.122,-0.488,79.101,4.144
0.061,0.991,0.192,-1.709,-0.61,1.16,78.842,4.007
0.049,1.002,0.159,-1.709,-2.93,-1.648,79.3,3.73
0.08,0.963,0.176,1.709,-0.793,-1.587,79.246,3.861
0.076,0.974,0.157,1.831,-0.854,0.427,79.405,3.824
0.068,0.956,0.177,0.793,1.221,1.526,79.486,3.959
0.069,0.97,0.151,2.563,-0.671,-0.488,79.407,4.277
0.064,0.978,0.16,0.61,0.122,0.488,79.751,4.039
0.063,0.981,0.152,0.183,-0.366,1.099,79.905,3.848
0.079,0.981,0.151,4.639,0.916,0.732,80.232,3.986
0.053,0.982,0.153,1.953,1.404,1.404,80.314,3.748
0.055,0.968,0.146,-2.197,-1.16,1.709,80.528,3.621
0.035,0.987,0.134,0,0.122,0.977,80.929,3.208
0.046,0.979,0.133,3.418,0.977,-0.061,81.324,2.739
0.052,0.977,0.129,-0.244,-0.732,0.977,81.653,2.731
0.059,0.977,0.126,-0.061,-0.427,0.366,81.916,2.788
0.033,0.976,0.122,-0.122,-0.366,2.625,82.07,2.769
0.056,0.969,0.116,1.343,-0.244,-1.099,82.236,2.916
0.016,0.982,0.108,-0.854,-0.366,0.122,82.704,2.391
0.045,0.989,0.112,2.747,-0.366,-0.732,82.98,2.185
0.086,0.971,0.122,2.258,2.808,-0.671,82.695,2.953
0.047,0.989,0.121,-0.793,2.136,0.732,82.723,2.804
0.019,0.986,0.117,4.883,2.991,-0.366,82.598,2.838
0.043,0.968,0.1,0.488,-0.366,0.61,82.72,2.827
0.03,0.982,0.113,0.671,-0.671,1.587,83.134,2.018
0.03,0.977,0.118,0.427,0,1.77,83.224,1.777
0.031,0.982,0.097,1.648,-0.671,0.061,83.452,1.954
0.052,0.98,0.11,2.686,2.869,-0.122,83.304,2.07
0.01,0.98,0.104,1.221,2.38,1.465,83.514,1.782
0.02,0.973,0.1,1.465,1.77,2.014,83.783,1.648
0.015,0.99,0.103,1.16,0.671,-0.732,83.76,1.418
0.027,0.986,0.095,6.653,1.16,-2.686,84.053,1.061
0.049,0.981,0.103,-2.502,-7.141,1.709,83.947,1.623
0.021,0.98,0.115,3.479,-1.282,1.16,83.753,1.635
0.03,0.98,0.107,3.174,-0.366,-0.549,83.633,1.846
0.026,0.98,0.105,0.122,-2.686,0.977,83.493,1.837
0.024,0.977,0.116,4.028,-0.61,0.061,83.388,1.472
0.018,0.978,0.135,12.146,1.648,-2.014,83.11,1.425
0.017,0.987,0.112,0.793,-5.005,-0.854,83.082,1.238
0.034,0.987,0.116,-3.296,-6.836,-0.977,82.91,1.35
-0.003,0.968,0.115,2.563,-0.732,-1.953,82.978,0.956
0.014,0.973,0.161,22.339,-2.625,2.075,82.604,0.896
aX,aY,aZ,gX,gY,gZ,Roll,Pitch
0.008,0.923,0.102,7.202,-1.526,-0.854,82.648,0.782
0.01,0.966,0.182,-0.916,1.953,-0.305,81.679,0.43
0.003,1.149,0.148,-21.912,0.183,-1.465,81.582,0.495
0.007,0.994,0.09,-1.77,-1.587,2.136,82.624,0.402
0.012,0.979,0.103,3.723,1.099,2.014,82.706,0.456
0.005,0.986,0.114,14.832,3.357,2.38,83.671,0.374
-0.049,0.973,0.171,17.151,10.925,0.61,83.061,-0.366
-0.016,0.947,0.158,12.024,5.432,1.221,81.97,-0.715
0.038,0.976,0.191,2.014,4.15,-0.793,80.712,-0.34
0.01,0.972,0.188,0.671,3.723,0.061,79.623,-0.256
0,0.964,0.186,3.601,7.751,1.16,79.373,0.472
0.018,0.959,0.203,2.319,7.324,-0.854,78.726,0.962
0.026,0.967,0.183,0.732,4.15,-0.61,78.827,0.793
0.026,0.979,0.191,5.066,6.287,-0.916,78.78,1.025
0.036,0.963,0.187,8.85,4.761,-0.183,78.703,1.534
0.049,0.95,0.207,3.723,3.967,-0.366,78.556,1.999
0.032,0.97,0.205,0.977,4.456,-2.075,78.241,2.08
0.044,0.965,0.192,3.418,5.371,-2.197,78.142,2.347
0.068,0.96,0.2,5.31,4.456,-1.953,77.86,2.817
0.035,0.955,0.218,6.287,2.197,-1.77,77.769,2.599
0.079,0.954,0.217,2.502,1.221,-1.099,77.396,3.295
0.082,0.947,0.224,4.395,1.953,0.427,76.745,3.856
0.068,0.954,0.228,2.197,-0.488,2.991,76.342,3.867
0.055,0.966,0.209,-4.7,-5.188,1.038,76.414,4.151
0.085,0.962,0.208,0.61,-0.488,-0.61,76.539,4.231
0.078,0.962,0.206,-0.305,-0.61,0.183,76.859,4.154
0.044,0.974,0.193,1.709,-1.648,-0.977,77.503,3.787
0.059,0.964,0.2,2.258,-1.099,-1.099,77.597,3.856
0.07,0.96,0.196,-0.061,-1.282,0,77.822,3.637
0.059,0.961,0.184,-4.333,-2.319,0.916,78.19,3.367
0.064,0.973,0.165,-0.977,-1.587,-0.244,78.471,3.658
0.074,0.981,0.157,0.977,-0.122,-0.305,79.022,3.866
0.06,0.964,0.167,4.333,1.16,-1.709,79.473,3.722
0.078,0.963,0.177,2.136,0.793,1.16,79.473,4.005
0.062,0.955,0.179,-1.953,-0.549,0.854,79.253,3.992
0.043,0.966,0.16,-4.089,-2.136,0.061,79.336,3.557
0.056,0.978,0.132,-0.671,-2.747,1.404,79.865,3.491
0.069,0.979,0.128,0.916,0.549,0.854,80.614,3.351
0.05,0.972,0.138,-0.244,-0.122,1.404,81.27,3.171
0.033,0.977,0.126,1.099,-0.793,0.793,81.796,3.018
0.031,0.977,0.124,1.282,-0.977,-0.061,82.025,2.667
0.051,0.972,0.119,-0.244,-2.075,0,82.215,2.408
0.053,0.976,0.12,-1.16,-1.648,1.099,82.451,2.448
0.052,0.975,0.113,-1.465,-1.404,1.587,82.533,2.72
0.02,0.991,0.1,-1.099,-2.441,-1.648,82.934,2.544
0.047,0.986,0.097,4.028,-2.38,-1.831,83.28,2.475
0.059,0.976,0.102,-0.366,-1.892,-0.061,83.482,2.569
0.059,0.976,0.098,1.587,0.61,-0.793,83.639,2.68
0.019,1.016,0.072,0.305,0.427,-0.244,84.042,2.659
0.078,1.009,0.104,5.188,1.16,2.136,83.777,3.095
0.036,0.985,0.076,-1.953,1.587,1.465,84.272,2.758
0.031,0.979,0.11,1.831,0.061,0.122,84.305,2.358
0.037,0.984,0.094,3.845,1.404,-0.305,83.864,2.63
0.059,0.977,0.096,5.066,2.258,-1.465,84.032,2.375
-0.01,0.972,0.105,2.441,2.319,1.526,83.848,1.713
0.04,0.983,0.105,1.16,1.831,1.648,83.884,1.84
0.045,0.992,0.095,0.427,0.061,0.854,83.86,1.945
0.031,0.983,0.098,0.854,-0.061,-0.488,83.947,1.537
0.031,0.99,0.092,0.671,-0.549,-0.244,83.976,2.12
0.053,0.99,0.086,2.441,1.038,0.427,84.164,2.303
0.024,0.993,0.08,-1.404,1.648,2.625,84.478,2.008
0.022,0.989,0.087,3.174,2.258,0.671,84.684,1.875
0.026,0.975,0.078,1.953,0.61,1.099,84.871,1.818
0.033,0.972,0.086,0.671,0.732,-0.244,84.943,1.535
0.053,0.974,0.08,0.244,1.099,-1.404,84.77,1.961
0.048,0.998,0.09,10.437,4.395,-2.686,84.587,2.335
0.046,0.971,0.117,7.141,2.93,-2.075,83.955,2.612
0.055,0.961,0.108,-2.136,-3.052,1.282,83.516,2.933
0.066,0.981,0.087,-3.54,-1.282,2.136,83.35,3.12
0.036,0.979,0.1,-0.244,-0.305,0.366,83.272,2.965
0.038,0.99,0.092,2.93,2.014,0.916,83.68,2.845
0.041,1.001,0.078,-1.953,2.625,3.723,84.221,2.614
0.038,0.969,0.088,3.174,4.883,-0.61,84.357,2.216
0.012,0.994,0.075,0.793,-7.568,2.686,84.837,1.855
0.036,1.003,0.082,-5.127,-5.127,1.343,84.996,1.822
0.019,0.983,0.078,11.719,2.319,-1.709,85.083,1.523
-0.002,0.984,0.097,4.456,-3.052,3.052,85.13,0.942
0.014,0.996,0.094,-1.465,-0.549,0.977,84.866,0.977
0.026,0.981,0.093,1.648,0.732,0.244,84.707,0.83
0.02,0.985,0.086,3.662,1.16,-0.793,84.584,0.844
0.006,0.979,0.1,3.601,0.977,-0.671,84.51,0.961
0.02,0.977,0.106,6.287,-0.671,0.549,84.293,1.047
0.029,0.967,0.122,-0.549,-2.563,-0.122,83.855,1.102
-0.007,0.98,0.113,1.221,-4.944,-0.366,83.528,0.7
0.016,0.978,0.109,4.517,1.221,-2.075,83.385,0.841
-0.009,0.981,0.121,15.137,-4.883,3.967,83.217,0.421
aX,aY,aZ,gX,gY,gZ,Roll,Pitch
-0.003,0.962,0.143,20.63,-2.319,2.625,82.91,-0.046
-0.005,0.965,0.123,-15.503,3.906,0.916,82.726,-0.009
0.006,0.901,0.134,7.568,0.732,0.366,82.202,-0.147
-0.015,0.992,0.067,2.502,1.221,1.587,83.023,-0.234
-0.009,0.989,0.053,0.732,1.709,0.61,84.392,-0.324
-0.021,0.997,0.057,-0.244,1.282,1.953,85.39,-0.568
-0.028,0.984,0.064,6.714,-0.427,4.7,86.369,-1.05
-0.058,0.991,0.098,1.587,6.348,-1.831,85.728,-1.675
-0.043,1.002,0.074,10.864,6.409,-2.014,85.267,-2.156
-0.049,0.989,0.121,4.883,8.484,1.587,84.261,-2.549
-0.019,0.971,0.11,3.54,6.653,3.174,83.694,-2.43
-0.001,0.975,0.119,1.221,3.235,-1.038,83.641,-1.616
-0.019,0.993,0.104,7.629,5.737,-2.319,83.286,-1.267
-0.006,0.977,0.14,7.141,5.249,-1.831,83.079,-0.647
0.003,0.959,0.165,4.761,4.456,-0.732,82.293,-0.325
0.006,0.968,0.158,4.395,3.784,-1.831,81.727,-0.22
0.003,0.972,0.169,2.991,1.892,-1.099,80.744,0.096
0.028,0.958,0.169,4.578,2.319,-1.038,80.264,0.584
0.019,0.98,0.182,4.761,4.944,-2.197,80.055,0.807
0.03,0.977,0.187,4.395,3.296,-1.343,79.636,1.151
0.034,0.962,0.19,4.7,2.625,-1.709,79.257,1.597
0.022,0.968,0.192,4.456,1.221,-1.892,78.962,1.512
0.067,0.967,0.195,2.197,0.244,-0.305,78.632,2.211
0.052,0.957,0.176,1.16,-1.282,1.465,78.652,2.541
0.03,0.97,0.184,3.418,-1.038,0.305,78.763,2.484
0.06,0.965,0.188,2.319,-2.441,0.183,78.68,3.044
0.052,0.969,0.181,0.427,-2.991,-0.244,78.939,2.837
0.018,0.97,0.185,2.686,-2.075,-0.488,78.971,2.341
0.052,0.968,0.183,0.854,-2.441,-0.549,78.911,2.668
0.046,0.97,0.179,0.488,-1.709,-0.061,79.1,2.452
0.043,0.975,0.177,-0.183,-3.967,-0.854,79.194,2.314
0.055,0.963,0.18,4.456,-1.16,-1.221,79.122,2.845
0.041,0.968,0.186,2.747,-1.892,-1.892,79.119,2.672
0.053,0.96,0.182,5.493,-1.831,-1.099,79.026,2.789
0.053,0.967,0.19,1.465,-0.488,-0.061,78.791,2.935
0.054,0.966,0.191,1.099,0.488,0.854,78.651,2.923
0.049,0.972,0.181,0.061,-0.854,-0.488,78.698,3.048
0.043,0.968,0.172,-0.671,-1.77,-1.465,78.89,2.891
0.057,0.966,0.173,0.549,-1.038,-1.526,79.1,2.958
0.049,0.982,0.172,1.587,-0.183,0.732,79.409,2.88
0.077,0.959,0.175,7.08,3.235,0.488,79.345,3.29
0.061,0.975,0.167,-1.709,-0.244,2.197,79.35,3.549
0.053,0.981,0.164,2.808,0.977,0.793,79.536,3.478
0.028,1.008,0.169,2.808,1.038,0,79.749,3.156
0.051,0.966,0.177,6.042,0.427,-1.953,79.855,2.772
0.061,0.959,0.191,3.845,-0.488,-1.831,79.489,2.781
0.066,0.961,0.189,1.16,-0.854,-0.793,79.045,2.969
0.05,0.967,0.183,0,-2.014,-1.099,78.654,3.306
0.082,1.009,0.204,-2.075,-0.671,0.977,78.271,3.725
0.05,0.99,0.166,-2.686,-0.061,2.075,78.745,3.543
0.054,0.979,0.158,1.343,1.343,1.587,79.258,3.365
0.07,0.969,0.146,1.709,1.343,1.282,79.646,3.663
0.06,0.963,0.16,1.709,2.075,2.197,80.223,3.387
0.04,0.988,0.145,-1.587,-1.404,0.244,80.55,3.254
0.039,0.975,0.141,3.906,1.099,-1.282,80.836,3.038
0.059,0.972,0.134,-0.977,-1.343,-0.488,81.062,2.878
0.059,0.976,0.162,4.7,2.014,0.366,81.072,2.858
0.04,0.972,0.132,-3.357,-3.235,-0.793,81.212,2.867
0.064,0.98,0.142,2.991,0.793,-1.16,81.093,3.23
0.042,0.972,0.13,6.042,4.822,-0.488,81.233,2.975
0.073,0.968,0.114,1.465,3.296,4.15,81.783,3.182
0.07,0.962,0.09,-8.179,-3.54,-0.61,82.124,3.629
0.039,0.995,0.108,-1.892,1.709,2.625,82.755,3.262
0.044,0.985,0.08,-0.671,2.014,1.831,83.404,3.287
0.038,0.991,0.076,1.038,2.93,-0.977,84.16,2.777
0.03,1.008,0.085,-3.906,0.183,-0.671,84.54,2.179
0.058,0.98,0.061,4.15,1.465,-1.16,84.994,2.459
0.04,0.967,0.069,-1.77,-0.732,2.258,85.132,2.42
0.049,0.98,0.039,-0.305,-1.953,1.587,85.486,2.583
0.05,0.983,0.051,0.488,-0.061,2.258,85.668,2.887
0.03,0.991,0.061,2.197,0.854,1.221,85.942,2.467
0.007,1,0.034,1.648,2.014,1.038,86.663,1.973
0.014,0.983,0.075,2.869,0.916,-1.526,86.475,1.457
0.034,0.99,0.063,1.465,-3.784,0.366,86.405,1.222
0.034,0.982,0.057,-2.197,-1.953,0.549,86.439,1.283
0.016,0.977,0.064,3.845,1.221,-1.038,85.973,1.421
0.017,0.976,0.077,4.517,-1.526,1.221,85.925,1.479
0.013,0.987,0.065,2.014,-2.075,0,85.996,1.179
0.016,0.984,0.074,4.028,-1.465,-0.183,85.83,0.912
0.034,0.984,0.074,1.77,-0.793,-1.77,85.626,1.158
0.015,1.003,0.06,6.958,-2.625,0.854,85.902,1.121
-0.011,1.034,0.092,26.123,-8.972,2.869,85.657,0.766
aX,aY,aZ,gX,gY,gZ,Roll,Pitch
0.005,0.954,0.109,5.432,-0.366,2.502,85.153,0.619
0.006,0.995,0.126,-6.226,7.202,-1.404,84.458,0.224
0.029,0.972,0.089,6.409,3.601,1.343,83.987,0.429
0.009,1.006,0.021,-2.319,-2.136,4.333,84.926,0.719
0.003,0.968,0.045,3.296,3.784,-1.892,85.856,0.694
0.014,0.99,0.05,6.775,1.038,7.141,86.904,0.813
0.006,0.973,0.073,9.766,1.709,6.531,87.199,0.476
-0.034,0.978,0.122,14.038,5.432,-2.014,85.743,-0.146
-0.056,0.973,0.116,18.738,7.019,-2.136,84.622,-1.014
-0.011,0.939,0.155,2.869,-0.793,4.639,82.973,-1.395
0,0.971,0.165,-1.099,5.31,0.488,81.638,-1.479
-0.024,0.971,0.133,-3.235,6.47,-0.122,81.491,-1.343
-0.011,0.969,0.126,6.897,9.399,-0.549,81.415,-0.675
0.026,0.983,0.153,0.977,6.409,-1.16,81.565,-0.126
-0.007,0.983,0.164,3.906,2.869,0.244,81.601,-0.234
-0.007,0.965,0.148,3.845,3.357,0.793,81.378,0.021
0.016,0.976,0.15,0.183,1.343,1.77,81.042,0.405
0.013,0.983,0.159,5.859,4.822,-2.38,80.972,0.212
0.002,0.964,0.18,1.892,5.249,-2.869,80.702,0.348
0.017,0.962,0.167,3.662,5.737,-2.625,80.405,0.699
0.054,0.972,0.155,4.211,4.211,-1.526,80.263,1.254
0.045,0.968,0.17,4.272,2.747,-0.977,79.998,1.719
0.03,0.975,0.173,5.981,2.441,0.427,80.034,2.127
0.037,0.969,0.185,0.916,0.732,0.61,79.733,2.403
0.029,0.978,0.172,0.183,-0.366,0.427,79.597,2.046
0.067,0.967,0.16,4.395,0.305,0,79.662,2.366
0.061,0.965,0.187,4.089,2.625,0.488,79.336,2.812
-0.043,0.944,0.222,3.296,-0.122,0.488,78.998,1.657
0.023,0.971,0.193,5.92,-0.916,-0.793,78.694,1.571
0.056,0.961,0.208,6.897,2.686,-1.16,78.01,1.42
0.036,0.96,0.218,2.197,1.099,1.16,77.598,1.053
0.037,0.969,0.214,4.7,1.038,-0.732,77.629,2.216
0.048,0.958,0.218,4.456,-0.427,-1.465,77.164,2.578
0.063,0.957,0.211,0.061,-1.831,-0.732,77.098,2.681
0.071,0.955,0.207,-0.488,-2.014,0.183,77.114,3.199
0.045,0.955,0.206,-0.793,-2.136,-0.977,77.157,3.32
0.045,0.971,0.191,-2.747,-3.479,-1.953,77.589,3.266
0.063,0.959,0.189,0.488,-2.075,-1.709,77.891,3.272
0.053,0.96,0.175,-4.211,-4.272,0.916,78.417,3.015
0.046,0.974,0.162,-3.296,-4.944,-0.488,79.069,3.022
0.065,0.975,0.147,2.136,-2.502,-2.014,79.584,3.321
0.082,0.97,0.15,0.122,-1.709,-1.038,80.056,3.583
0.039,0.903,0.192,-0.427,0.122,1.831,79.757,3.42
0.083,0.854,0.168,3.906,0,0.854,79.151,4.091
0.055,0.977,0.144,1.465,0.916,1.465,79.268,3.931
0.056,0.974,0.146,3.296,0.549,-0.244,79.465,3.537
0.063,0.974,0.142,2.014,0.549,-0.61,80.213,3.837
0.064,0.977,0.134,2.258,1.77,-1.892,81.069,3.452
0.069,0.963,0.141,-1.709,-0.671,2.93,80.99,3.67
0.028,0.986,0.135,-0.732,0.305,1.892,81.317,3.248
0.091,0.972,0.14,3.357,2.869,-0.061,81.177,3.656
0.048,0.982,0.126,-0.549,0.916,0.854,81.388,3.413
0.051,0.978,0.135,2.38,1.404,0.244,81.594,3.136
0.057,0.989,0.121,2.502,0.244,0.244,81.629,3.553
0.062,0.97,0.134,2.258,2.014,-0.183,81.877,3.137
0.064,0.974,0.124,-0.854,0.671,0.61,81.795,3.374
0.063,0.98,0.126,3.052,1.404,-0.793,81.852,3.553
0.049,0.97,0.097,-0.061,0.916,1.038,82.165,3.463
0.052,0.979,0.098,1.16,0.732,0,82.708,3.319
0.043,0.975,0.098,2.869,1.099,2.38,83.19,3.013
0.038,0.986,0.091,2.075,0.793,1.221,83.806,2.643
0.054,0.978,0.113,4.639,3.54,-0.183,83.579,2.713
0.057,0.988,0.112,4.15,5.127,0.122,83.377,2.769
0.013,1.009,0.114,6.47,7.629,2.563,83.383,2.321
0.013,0.981,0.098,2.075,0.916,0.366,83.395,1.975
0.041,0.974,0.105,1.282,1.404,1.099,83.558,1.784
0.021,0.981,0.088,-0.183,-0.488,1.343,84.016,1.27
0.025,0.988,0.081,1.831,-0.061,3.54,84.398,1.447
0.02,0.983,0.078,1.465,-0.732,0.305,84.662,1.545
-0.004,0.98,0.089,1.16,-0.366,1.16,85.05,0.891
0.012,0.986,0.076,7.69,1.343,-0.61,85.244,0.768
0.018,0.977,0.097,6.165,3.296,-1.587,85.026,0.676
0.023,0.979,0.102,2.808,0,-0.244,84.66,0.712
0.045,0.979,0.102,-1.038,-2.258,0.427,84.33,1.427
0.052,0.975,0.095,10.803,3.418,-2.075,83.886,2.004
0.021,0.977,0.107,6.653,2.93,1.343,83.738,2.035
-0.001,0.985,0.099,3.967,0.305,-1.16,83.898,1.688
0.047,1.009,0.109,2.869,-1.587,0.793,83.833,1.707
0.03,0.964,0.147,4.944,0.916,0.061,83.163,1.395
0.04,0.981,0.134,-0.732,-6.287,2.319,82.725,1.676
0.008,0.973,0.131,13.184,5.615,-1.831,82.227,1.815
0.011,0.966,0.149,1.221,-1.038,-1.709,81.69,1.297
0.046,0.972,0.146,-2.625,-2.502,-1.099,81.68,1.529
0.012,0.975,0.12,-2.38,-3.662,0.122,81.94,1.119
0,0.969,0.122,0.671,-0.854,-0.549,82.075,0.992
0.001,0.991,0.098,-7.385,-7.996,3.357,82.87,0.849
aX,aY,aZ,gX,gY,gZ,Roll,Pitch
0.004,0.982,0.098,7.507,-1.038,0.244,83.623,0.241
-0.003,0.958,0.1,-12.39,3.967,0.366,83.89,0.027
0.005,0.966,0.095,7.446,2.991,-0.793,84.28,0.113
0,0.991,0.048,-2.319,1.77,-0.977,85.006,0.1
0.006,0.996,0.041,12.817,2.991,0.793,85.856,0.128
0.005,0.99,0.1,5.92,-1.099,0.854,85.874,0.241
0.001,0.98,0.106,2.747,2.441,0.916,85.735,0.173
-0.03,1.003,0.122,16.724,4.578,-0.305,84.687,-0.267
0.004,0.955,0.16,15.137,9.216,-2.38,82.917,-0.297
0.006,0.974,0.164,6.287,3.784,-0.732,81.969,-0.276
0.014,0.972,0.183,2.869,5.554,-1.16,80.844,-0.083
0.026,0.971,0.19,4.517,7.019,-1.099,79.756,0.737
0.05,0.966,0.189,3.845,5.005,-1.221,79.306,1.4
0.031,0.966,0.185,6.165,7.385,-2.136,78.949,1.752
0.033,0.958,0.204,7.69,5.981,-1.526,78.576,2.031
0.042,0.969,0.189,-1.648,2.563,-2.014,78.552,2.256
0.078,0.968,0.193,5.31,3.357,-2.075,78.42,2.664
0.094,0.96,0.203,0.854,0.916,-1.77,77.908,3.585
0.064,0.972,0.193,-2.075,-1.404,-0.793,77.948,4.027
0.084,0.962,0.188,-1.099,0.671,-0.488,77.719,4.652
0.063,0.961,0.182,2.197,1.831,-1.953,77.918,4.44
0.077,0.962,0.18,0.793,0.366,0.732,78.326,4.19
0.087,0.962,0.177,0.732,-0.916,1.892,78.391,4.539
0.07,0.97,0.174,-1.16,-0.244,1.648,78.672,4.321
0.079,0.969,0.154,1.038,-0.916,-0.366,78.975,4.556
0.087,0.966,0.153,3.845,0.061,0.916,79.26,4.714
0.069,0.966,0.163,2.136,0.671,1.16,79.571,4.443
0.051,0.973,0.158,1.16,-3.662,1.77,79.9,4.169
0.067,0.972,0.16,3.113,-0.916,-1.099,79.9,3.99
0.085,0.977,0.156,3.54,-0.854,-0.671,79.9,3.941
0.072,0.967,0.17,5.188,1.831,-0.366,79.79,3.991
0.048,0.971,0.181,5.676,1.709,-0.916,79.508,3.95
0.064,0.96,0.172,3.113,-0.549,-0.305,79.328,3.912
0.064,0.969,0.193,0.366,-0.671,0.244,78.915,3.616
0.092,0.954,0.178,1.587,-0.427,-0.549,78.667,3.905
0.072,0.972,0.181,1.892,0.671,-0.854,78.542,4.25
0.075,0.975,0.179,0.854,-0.305,-0.061,78.435,4.393
0.108,0.99,0.162,0.732,-0.488,0.366,78.642,5.007
0.104,1.001,0.149,0.305,-1.587,0.427,79.064,5.126
0.059,0.979,0.165,1.343,-0.732,0.122,79.36,4.942
0.063,0.979,0.159,1.099,-0.183,1.099,79.693,4.775
0.147,0.949,0.161,0.061,-0.732,0.732,79.333,5.377
0.04,0.975,0.152,-2.075,-5.249,0.244,79.652,4.499
0.075,0.965,0.156,9.338,0.305,-2.686,79.635,4.74
0.071,0.951,0.173,2.747,-1.587,-1.465,79.334,4.88
0.107,1.036,0.16,-6.836,-4.028,3.052,79.831,4.205
0.057,0.964,0.167,3.845,0.427,2.38,79.506,4.45
0.067,0.962,0.158,3.662,1.709,1.282,79.525,4.344
0.058,0.975,0.158,1.282,0.916,-0.061,79.859,4.131
0.069,0.976,0.153,2.93,1.16,-0.793,80.003,3.642
0.076,0.971,0.164,3.357,1.77,-1.709,79.967,3.907
0.087,0.97,0.154,4.456,1.831,0.732,79.925,4.188
0.079,0.963,0.157,1.953,0.916,0.671,79.771,4.508
-0.107,0.915,0.17,1.526,0.61,-3.845,80.224,1.981
0.091,0.968,0.158,2.93,3.357,-0.854,80.244,2.217
0.086,0.97,0.16,2.502,0.061,-1.404,80.151,2.206
0.079,0.968,0.165,1.221,0.977,-0.549,80.048,2.207
0.078,0.956,0.168,0.916,1.526,0.732,79.254,4.891
0.072,0.98,0.173,-0.183,1.099,1.465,79.222,4.597
0.084,0.961,0.165,2.075,1.526,1.465,79.156,4.581
0.103,0.968,0.162,-1.465,-1.892,1.465,79.044,4.93
0.057,0.982,0.151,4.15,0.366,0.427,79.462,4.592
0.049,0.967,0.138,-1.404,-1.648,2.502,80.023,4.275
0.068,0.976,0.144,0,-1.099,0,80.422,4.023
0.079,0.98,0.148,-0.488,-1.648,0.854,80.784,3.668
0.052,0.966,0.15,5.432,1.038,-1.16,80.8,3.608
0.05,0.974,0.153,0.427,-0.854,1.221,80.61,3.611
0.056,0.966,0.152,-0.916,0.61,1.343,80.549,3.452
0.075,0.98,0.125,-1.16,0.549,2.136,80.873,3.4
0.052,0.974,0.131,0.671,1.648,0.366,81.139,3.392
0.048,0.981,0.13,0.061,-0.671,0.854,81.472,3.357
0.058,0.964,0.12,-1.77,-1.831,3.113,81.874,3.391
0.016,0.984,0.119,-0.244,-1.953,1.16,82.272,2.528
0.052,0.974,0.121,4.089,1.221,-0.671,82.412,2.532
0.061,0.97,0.125,2.197,2.93,1.038,82.393,2.732
0.048,0.993,0.111,-0.488,1.343,1.709,82.622,2.566
0.041,0.979,0.11,2.625,-1.892,2.441,82.603,2.93
0.015,0.984,0.105,-5.066,-3.967,2.441,83.027,2.397
0.001,0.983,0.097,1.465,-0.427,1.038,83.688,1.523
0.009,0.982,0.101,6.409,1.099,-0.183,83.92,0.96
0.01,0.979,0.105,4.456,-0.244,0.366,84.043,0.517
0.013,0.975,0.107,3.174,0.427,-0.061,84.005,0.478
-0.008,0.972,0.117,4.333,0,1.038,83.708,0.358
0.014,0.981,0.12,3.418,-1.099,0.488,83.427,0.425
-0.013,0.962,0.114,2.502,0.122,-0.427,83.288,0.087
0.015,0.971,0.116,1.221,-0.732,-0.244,83.143,0.123
0.027,0.975,0.111,-1.77,-1.953,-0.305,83.198,0.63
-0.002,0.975,0.1,1.343,-3.967,-0.61,83.496,0.406
0.006,0.976,0.114,7.08,-1.648,1.221,83.497,0.681
0.01,0.985,0.117,4.395,-0.977,-0.854,83.518,0.611
-0.009,0.988,0.136,9.521,-1.831,2.625,83.216,0.085
aX,aY,aZ,gX,gY,gZ,Roll,Pitch
-0.009,0.968,0.14,9.583,-0.427,0.427,82.639,-0.021
-0.009,0.997,0.112,-29.785,5.188,-1.77,82.697,-0.238
-0.005,0.954,0.111,-9.094,-3.357,3.174,82.711,-0.463
0.001,0.98,0.101,5.798,5.493,-4.028,83.205,-0.322
0.001,0.978,0.08,4.822,2.625,1.282,84.093,-0.174
-0.02,1,0.082,3.479,0.305,2.38,84.521,-0.335
-0.041,0.984,0.115,21.484,14.709,-1.465,84.45,-0.851
-0.003,0.985,0.13,2.93,4.028,2.563,84.043,-0.908
-0.009,0.979,0.146,2.38,6.165,-0.977,83.082,-1.05
-0.007,0.979,0.109,0.61,4.456,0.977,82.698,-0.869
0.01,0.97,0.129,1.953,5.859,-1.221,82.52,-0.133
0,0.982,0.119,7.568,8.179,-2.502,82.668,-0.087
0.017,0.977,0.125,3.845,6.47,-2.197,82.969,0.29
0.036,0.986,0.136,6.47,5.737,-1.892,82.539,0.907
0.033,0.975,0.155,7.263,6.409,-2.258,82.137,1.236
0.026,0.976,0.154,-1.709,1.953,-1.709,81.57,1.616
0.039,0.979,0.151,5.432,2.808,-1.343,81.142,1.936
0.062,0.968,0.173,5.737,1.526,-1.892,80.49,2.331
0.097,0.961,0.173,3.601,0.549,-2.258,79.939,3.268
0.073,0.965,0.183,-0.122,1.038,-1.953,79.276,3.959
0.063,0.957,0.183,5.371,2.502,-1.709,78.657,4.323
0.072,0.967,0.18,1.648,2.136,-0.854,78.516,4.461
0.101,0.951,0.188,1.892,2.319,2.991,78.265,4.527
0.081,0.973,0.171,-7.507,-4.517,4.089,78.408,4.635
0.052,0.978,0.146,-3.357,-3.601,-0.793,79.015,4.459
0.069,0.981,0.151,5.554,0.671,-1.221,79.442,4.413
0.091,0.965,0.167,6.409,2.869,-1.465,79.817,4.262
0.074,0.966,0.161,0.671,0.183,0.793,79.966,4.162
0.059,0.977,0.163,1.709,0.244,-0.427,79.707,4.254
0.082,0.973,0.158,4.761,1.465,-0.061,79.525,4.439
0.071,0.977,0.16,3.601,0.61,-1.099,79.763,4.129
0.074,0.972,0.169,3.113,-0.183,0.977,79.679,4.125
0.074,0.973,0.173,2.625,0.854,1.282,79.448,4.344
0.075,0.976,0.166,1.404,0.366,1.648,79.391,4.235
0.059,0.968,0.169,4.211,0.793,-0.244,79.318,4.076
0.075,0.967,0.17,3.174,0.366,-0.061,79.286,4.095
0.074,0.973,0.174,2.136,0.61,0.427,79.28,4.096
0.062,0.988,0.162,2.441,0.427,-0.427,79.426,3.905
0.074,0.958,0.177,4.028,0.916,-0.732,79.216,4.13
0.076,0.978,0.178,2.502,1.16,-0.671,79.133,4.133
0.08,0.944,0.18,0.244,-0.427,0.244,78.94,4.251
0.138,0.985,0.138,2.686,0.183,-0.549,78.775,5.359
0.084,0.979,0.157,0.244,0.427,-0.366,79.013,5.484
0.07,0.973,0.165,1.648,-0.549,1.099,79.209,5.407
0.076,0.967,0.165,2.93,0.61,-0.549,79.48,5.321
0.077,0.964,0.166,4.578,0.488,-0.549,79.473,4.466
0.083,0.966,0.168,3.784,0.244,-0.427,79.298,4.467
0.086,0.972,0.176,5.554,0.732,-0.854,79.055,4.701
0.104,0.96,0.19,3.235,0.61,0.305,78.547,5.11
0.077,0.964,0.158,-1.526,-0.488,0.916,78.658,5.106
0.069,0.968,0.166,0.427,0.732,2.014,78.774,4.895
0.052,0.968,0.158,1.465,0.366,1.77,79.199,4.412
0.058,0.971,0.158,2.441,0.427,0.366,79.91,3.737
0.088,0.977,0.159,0.122,0.122,0.244,79.864,3.888
0.074,0.969,0.157,1.77,0.671,0,79.963,3.96
0.077,0.979,0.153,1.038,1.465,1.648,79.909,4.3
0.068,0.975,0.149,-1.587,1.404,1.282,79.961,4.448
0.038,0.987,0.141,2.686,2.014,0.488,80.525,3.713
0.08,0.97,0.146,3.601,-0.488,-1.038,80.638,3.805
0.086,0.978,0.149,1.709,-0.061,0.305,80.633,3.935
0.068,0.966,0.134,0.977,-0.671,1.465,80.811,3.948
0.049,0.986,0.145,2.502,1.099,0,80.684,4.107
0.047,0.977,0.143,4.15,0.488,-0.793,80.939,3.616
0.08,0.969,0.155,-0.183,-1.282,0.061,80.877,3.546
0.058,0.974,0.152,2.441,0.732,1.099,80.706,3.388
0.055,0.974,0.142,2.808,0.732,0.183,80.681,3.492
0.063,0.975,0.141,2.563,4.639,2.502,80.607,3.732
0.039,0.978,0.138,2.075,2.319,1.526,81.066,3.134
0.03,0.974,0.146,2.502,0.427,1.16,81.289,2.73
0.061,0.964,0.14,1.526,-1.709,1.77,81.273,2.818
0.054,0.976,0.132,5.981,1.404,2.441,81.444,2.684
0.014,0.971,0.139,3.418,1.587,0.854,81.527,2.322
0.022,0.972,0.129,-1.892,-0.854,1.892,81.788,2.206
-0.002,0.987,0.112,0.366,-0.488,2.869,82.423,1.285
0.007,0.975,0.123,5.188,1.404,-0.305,82.636,0.606
0.03,0.974,0.127,6.226,3.235,-2.93,82.788,0.834
0.044,0.979,0.121,-1.587,-4.761,0.549,82.876,1.145
0.019,0.99,0.125,-3.052,-3.113,0.977,82.653,1.443
0.01,0.98,0.125,4.456,2.075,-1.648,82.622,1.478
0.039,0.985,0.111,0.916,-3.235,-0.427,82.845,1.605
0.029,0.954,0.15,-5.798,-4.089,-1.892,82.434,1.403
0.01,1.007,0.083,5.249,-2.502,-2.136,83.084,1.279
0.027,0.967,0.117,5.615,0.061,-1.709,83.124,1.537
0.014,0.982,0.134,3.723,-0.488,0.366,82.857,1.176
0.042,0.971,0.15,5.859,0.916,-0.854,82.852,1.366
aX,aY,aZ,gX,gY,gZ,Roll,Pitch
0.015,0.969,0.183,7.812,-0.671,0.549,81.347,1.443
0.013,0.989,0.149,-29.358,4.517,-1.16,80.979,1.224
-0.003,0.947,0.129,-4.15,-2.502,5.737,80.998,0.987
-0.014,1.001,0.051,-9.399,0.61,2.319,82.532,0.167
-0.004,0.983,0.029,-1.16,2.38,2.197,84.77,-0.117
-0.031,0.988,0.019,8.667,1.953,2.625,86.576,-0.754
-0.046,0.966,0.065,8.728,5.31,-4.822,87.242,-1.375
0.006,0.981,0.099,8.789,11.658,0.061,86.711,-1.098
-0.021,0.961,0.089,7.751,7.08,-0.671,85.787,-1.341
0.002,0.976,0.125,7.324,8.362,-2.197,84.371,-0.858
0.035,0.977,0.134,1.465,3.906,-1.648,83.442,0.332
0.035,0.982,0.13,5.371,4.517,-1.648,82.957,0.756
-0.07,0.961,0.104,9.644,9.644,-2.502,82.776,0.03
0.007,0.994,0.144,8.301,6.409,-0.427,82.542,0.108
0.04,0.963,0.187,5.127,3.723,0,81.741,0.176
0.047,0.965,0.177,3.723,1.526,0.488,81.03,0.356
0.043,0.964,0.199,3.845,2.747,-0.671,79.504,2
0.041,0.962,0.176,3.845,1.404,-2.258,78.869,2.505
0.053,0.964,0.199,7.263,3.601,-1.526,78.664,2.693
0.075,0.957,0.222,6.714,5.127,-1.404,77.915,3.105
0.087,0.951,0.211,-0.061,1.099,-0.977,77.536,3.753
0.061,0.953,0.212,0.916,0.488,-0.793,76.932,4.042
0.089,0.955,0.203,2.563,-0.61,0,76.682,4.578
0.092,0.954,0.212,2.502,0.61,-0.305,76.719,4.824
0.053,0.912,0.237,2.563,0,1.038,76.403,4.367
0.03,1.006,0.212,3.784,-0.061,-0.061,76.723,3.857
0.091,0.859,0.243,2.38,0.305,-0.854,75.835,3.969
0.062,0.961,0.228,2.502,-0.305,-0.549,75.761,3.51
0.077,0.959,0.218,2.075,-0.793,-0.671,76.096,3.819
0.08,0.955,0.228,3.296,0.549,-0.183,75.471,4.602
0.083,0.951,0.222,2.502,0.366,-0.061,76.123,4.384
0.069,0.961,0.223,2.014,-0.183,-0.366,76.152,4.497
0.081,0.958,0.218,2.319,0.732,-0.366,76.13,4.554
0.087,0.948,0.225,3.235,1.343,-0.183,76.104,4.675
0.095,0.951,0.232,2.38,0.244,0.305,75.909,4.846
0.076,0.964,0.215,1.099,-1.465,0.427,75.996,4.935
0.075,0.961,0.226,2.991,0.122,-1.099,75.93,4.839
0.102,0.965,0.228,4.333,0.854,-1.709,75.882,5.024
0.097,0.949,0.231,3.601,1.099,-0.244,75.881,5.062
0.081,0.942,0.236,3.479,1.282,0.366,75.493,5.159
0.058,0.938,0.253,4.272,2.075,0.61,75.141,4.944
0.017,0.958,0.247,2.686,0.366,0.122,75.215,3.714
0.136,1.017,0.236,-3.723,-1.709,0.916,75.244,4.211
0.069,0.976,0.234,-2.747,-1.038,1.404,75.441,4.004
0.084,0.962,0.222,2.441,0.61,-0.793,75.824,4.344
0.085,0.957,0.225,3.113,1.16,-1.404,75.772,5.32
0.087,0.957,0.23,3.235,0.549,-1.282,75.88,4.697
0.106,0.957,0.221,4.944,1.465,-0.854,75.803,5.268
0.101,0.955,0.24,4.395,2.869,0.916,75.466,5.517
0.07,0.956,0.24,5.005,-0.061,0.854,75.359,5.296
0.092,0.941,0.25,2.93,-0.61,1.343,75.024,5.37
0.081,0.966,0.238,0.549,0.244,2.625,74.962,4.978
0.387,0.94,0.212,2.563,1.16,3.174,73.439,9.136
0.086,0.95,0.22,-1.221,-0.366,1.526,73.514,9.377
0.086,0.972,0.199,-2.441,-2.441,1.343,74.261,9.256
0.076,0.963,0.207,-1.831,-1.343,0.61,74.627,9.21
0.077,0.972,0.191,-1.038,-0.916,2.686,77.164,4.699
0.061,0.966,0.196,3.296,2.197,-0.183,77.661,4.337
0.051,0.969,0.181,-0.366,-1.16,0.793,78.061,3.836
0.057,0.969,0.197,6.226,2.136,-2.014,78.298,3.568
0.091,0.958,0.202,5.798,2.869,-1.404,78.045,3.784
0.062,0.943,0.213,-1.038,0.977,1.587,77.74,3.818
0.074,0.966,0.204,1.099,0,2.075,77.314,4.153
0.071,0.956,0.199,-1.77,0.732,-0.061,77.177,4.356
0.049,0.974,0.189,-3.235,-0.366,1.16,77.597,3.727
0.058,0.971,0.168,0.122,0.671,-0.183,78.314,3.651
0.05,0.97,0.171,2.258,1.831,0.427,78.875,3.301
0.08,0.975,0.174,0.244,-0.305,0.671,79.23,3.429
0.075,0.965,0.171,1.77,2.075,0.244,79.313,3.815
0.036,0.968,0.169,6.226,1.343,1.587,79.393,3.501
0.057,0.964,0.163,3.357,0.916,1.038,79.443,3.619
0.051,0.975,0.159,-1.465,-0.061,2.502,79.778,3.192
0.058,0.961,0.148,0.244,-0.305,0.916,80.157,2.953
0.041,0.979,0.142,-1.099,-1.404,1.892,80.532,3.012
0.001,0.984,0.129,-0.793,-3.113,1.404,81.277,2.19
0.011,0.973,0.127,4.089,-1.343,0.183,81.849,1.62
0.034,0.974,0.135,1.282,-1.526,-0.732,82.119,1.276
0.014,0.979,0.124,0.488,-2.38,0.854,82.432,0.881
0.003,0.977,0.136,2.258,-1.282,0.427,82.317,0.906
0.023,0.969,0.127,2.319,-0.793,0.122,82.294,1.074
0.021,0.969,0.132,1.038,-1.465,-0.183,82.356,0.888
0.016,0.977,0.124,0.793,-0.671,1.343,82.352,0.923
0.018,0.976,0.126,1.099,-2.563,-0.305,82.465,1.137
0.026,0.986,0.126,0.854,-1.343,-1.343,82.499,1.187
0.018,0.983,0.136,2.319,-1.953,-0.61,82.471,1.126
0.003,0.976,0.128,3.845,-0.61,-0.916,82.437,0.935
0.036,0.965,0.139,2.869,0.549,-0.854,82.199,1.205
0.04,0.972,0.141,1.648,3.418,-2.502,81.932,1.403
0.032,0.973,0.131,0.061,-0.549,1.404,81.947,1.618
0.038,0.98,0.127,0.549,-2.014,0.854,81.845,2.126
0.049,0.977,0.125,0.488,-2.991,0.916,82.008,2.31
0.007,0.969,0.123,8.24,-6.348,0.732,82.382,1.837
0.009,0.966,0.15,6.348,-1.648,-1.038,82.171,1.508
-0.005,0.97,0.165,9.521,-0.427,-0.244,81.71,0.879
0.022,0.963,0.184,8.972,-3.845,2.136,80.864,0.48
aX,aY,aZ,gX,gY,gZ,Roll,Pitch
-0.032,0.973,0.114,11.108,-0.549,0.793,81.005,-0.087
-0.041,0.984,0.108,-0.488,2.563,-0.854,81.617,-0.82
-0.021,0.95,0.076,-9.094,-3.845,-0.488,82.827,-1.047
-0.04,0.988,0.023,0.061,0.366,2.502,84.894,-1.952
-0.042,0.989,0.023,0.122,1.221,2.075,86.029,-2.1
-0.05,1.005,0.031,7.263,-3.784,-1.221,86.849,-2.217
-0.038,0.997,0.063,6.348,4.761,-5.371,86.822,-2.447
-0.067,0.974,0.1,18.738,8.423,-5.188,85.764,-2.84
-0.002,0.994,0.122,11.414,8.484,-2.686,84.919,-2.254
0.003,0.978,0.14,3.174,5.92,1.77,83.667,-1.508
0.001,0.974,0.153,0.244,8.972,-1.16,82.456,-0.945
0.019,0.968,0.126,1.099,10.437,-2.014,82.129,0.296
0.033,0.988,0.143,3.54,8.484,-0.549,81.775,0.801
0.032,0.971,0.14,5.371,6.714,-1.526,81.702,1.229
0.042,0.978,0.154,2.869,2.441,0.549,81.595,1.82
0.034,0.964,0.165,5.188,1.648,-0.366,80.988,2.038
0.032,0.966,0.161,4.517,2.502,-1.709,80.686,2.032
0.05,0.968,0.177,5.188,2.93,-2.197,80.102,2.29
0.08,0.962,0.173,3.052,2.258,-2.136,79.658,2.854
0.028,0.977,0.188,3.784,0.366,-1.587,79.403,2.752
0.074,0.972,0.179,2.502,-0.916,1.099,79.013,3.358
0.058,0.977,0.177,-8.85,-6.592,1.587,79.009,3.466
0.054,0.972,0.162,1.16,-2.563,-0.061,79.298,3.081
0.052,0.968,0.157,0.854,-2.502,-1.709,79.576,3.45
0.055,0.966,0.161,3.723,-0.793,-1.709,79.891,3.177
0.062,0.975,0.161,4.761,-1.038,-1.465,80.087,3.242
0.085,0.959,0.171,4.456,1.16,0.244,79.772,3.707
0.064,0.979,0.164,0.427,0.244,1.404,79.654,3.872
0.042,0.972,0.169,2.991,1.526,0.488,79.631,3.677
0.056,0.966,0.17,2.197,-0.488,0.061,79.512,3.595
0.071,0.975,0.167,2.869,0,-0.854,79.674,3.379
0.082,0.973,0.173,2.502,-0.122,-0.244,79.445,3.633
0.063,0.965,0.178,0.671,-0.854,-1.038,79.196,3.953
0.06,0.972,0.16,0.61,-2.258,-1.16,79.321,4
0.082,0.966,0.164,3.052,0.122,0.366,79.282,4.163
0.099,0.91,0.178,3.54,1.831,-1.343,78.955,4.478
0.068,0.948,0.178,3.113,0.183,-0.427,78.874,4.564
0.075,0.966,0.171,3.784,-0.732,-1.953,78.615,4.796
0.079,0.973,0.167,2.502,-1.221,-0.122,78.605,4.757
0.116,0.968,0.176,2.747,-0.183,0.732,78.691,4.935
0.122,0.942,0.155,0.854,-0.305,2.197,78.595,5.738
0.064,0.966,0.168,-0.488,2.136,-0.488,78.714,5.581
0.068,0.972,0.167,1.892,0.244,0.427,78.797,5.418
0.063,0.975,0.16,3.296,0.732,0,79.37,4.642
0.079,0.972,0.165,3.479,0.305,-0.732,79.578,3.974
0.086,0.928,0.196,2.38,1.648,-0.61,78.985,4.323
0.072,0.987,0.16,1.709,0.488,1.648,79.096,4.363
0.062,0.977,0.167,2.869,0.916,0.671,79.014,4.348
0.078,0.964,0.161,0.244,0.061,-0.488,79.058,4.347
0.091,0.947,0.161,5.249,0.671,-2.319,79.542,4.401
0.079,0.952,0.161,1.221,1.038,1.831,79.392,4.543
0.082,0.961,0.164,2.808,2.808,-0.244,79.256,4.858
0.085,0.963,0.159,-0.671,2.014,2.686,79.228,4.966
0.052,0.977,0.149,-2.136,-1.404,0.793,79.703,4.372
0.048,0.998,0.157,3.479,0.366,-0.549,80.059,3.876
0.084,0.948,0.164,7.629,3.418,-1.099,80.015,3.91
0.062,0.965,0.149,3.967,-0.671,1.465,80.269,3.582
0.081,0.956,0.126,-1.892,-1.16,1.282,80.359,4.029
0.033,0.976,0.135,-2.38,-2.441,3.418,80.683,3.833
0.055,0.978,0.13,0.793,-2.319,0.549,81.379,3.389
0.047,0.975,0.12,8.118,2.075,-1.953,81.874,3.154
0.049,0.958,0.168,11.169,6.775,-0.488,81.473,2.677
0.028,0.958,0.156,4.761,2.136,1.465,81.159,2.615
0.085,0.963,0.161,0.488,1.831,1.343,80.553,3.063
0.06,0.973,0.143,-3.601,-0.366,2.808,80.174,3.251
0.046,0.973,0.131,-0.305,-1.282,3.418,80.732,3.198
0.012,0.974,0.116,-4.822,-2.319,3.113,81.397,2.964
-0.021,0.999,0.12,0.793,-1.648,0.488,82.451,1.401
0.018,0.986,0.094,0,-2.808,0.183,83.261,0.79
0.034,0.972,0.101,1.587,1.099,2.441,83.712,0.615
0.008,0.974,0.123,5.371,2.563,0.793,83.613,0.55
0.015,0.981,0.1,-4.639,0,3.54,83.812,1.082
-0.013,0.986,0.094,-1.099,-0.732,2.869,83.876,0.633
-0.023,0.981,0.082,-1.953,-3.662,1.16,84.193,-0.201
0.033,0.984,0.081,3.967,4.395,-0.732,84.813,0.158
-0.013,0.972,0.07,-0.244,-2.625,0.427,85.234,-0.249
-0.041,0.984,0.072,0.732,-3.906,2.625,85.514,-0.647
-0.026,0.986,0.066,-0.793,-0.916,1.282,85.745,-0.691
aX,aY,aZ,gX,gY,gZ,Roll,Pitch