aX,aY,aZ,gX,gY,gZ,Roll,Pitch
0.053,0.344,0.957,39.49,-3.235,-0.488,19.721,2.996
0.091,0.219,0.959,-9.338,2.38,-3.418,16.321,4.122
0.089,0.337,0.93,-18.738,2.502,-1.099,17.494,4.46
0.126,0.282,0.915,1.343,2.319,-3.296,17.378,5.197
0.083,0.284,0.919,-0.793,1.709,-1.77,16.697,5.697
0.041,0.277,0.937,-9.583,0.916,1.648,17.62,4.98
0.074,0.307,0.931,5.493,1.77,-4.028,17.188,4.775
0.113,0.339,0.922,-14.893,-0.671,2.93,17.96,4.56
0.09,0.369,0.92,-10.437,-2.625,-1.526,19.124,4.639
0.11,0.349,0.923,8.911,1.465,1.648,20.145,5.616
0.129,0.281,0.923,13.794,5.127,4.395,19.814,6.431
0.134,0.301,0.923,4.578,3.418,-2.258,19.274,6.756
0.068,0.262,0.953,7.263,4.211,-4.883,17.661,6.445
0.146,0.256,0.929,0.854,4.395,-2.502,16.322,7.011
0.208,0.268,0.913,3.174,2.686,-0.488,16.128,8.181
0.133,0.27,0.947,-1.16,-0.244,0.671,15.592,8.142
0.173,0.277,0.926,0.183,1.709,-1.038,15.841,9.702
0.19,0.29,0.926,-5.676,-0.854,-2.258,16.291,10.315
0.185,0.313,0.913,-14.099,-0.916,-8.057,16.938,9.947
0.151,0.124,0.862,-5.859,-0.061,-9.46,15.202,10.516
0.151,0.371,0.914,-8.545,-1.526,-0.671,16.625,10.143
0.151,0.369,0.903,-6.226,-2.136,8.057,17.894,9.562
0.138,0.51,0.857,-26.367,-8.057,4.761,20.982,8.84
0.049,0.528,0.781,-18.921,-10.193,-1.953,27.011,7.163
-0.01,0.544,0.816,0.122,-8.179,-6.958,30.053,4.833
-0.023,0.431,0.841,16.846,0.061,-5.737,31.397,2.279
0.03,0.471,0.868,3.784,-0.793,-7.141,30.838,0.681
0.091,0.437,0.843,4.272,-0.183,-0.427,28.367,1.478
0.05,0.449,0.866,5.798,-0.732,-0.305,28.095,1.781
aX,aY,aZ,gX,gY,gZ,Roll,Pitch
0.046,0.391,0.896,11.841,-0.916,0.732,26.83,2.885
0.028,0.432,0.915,2.319,4.089,-1.77,25.844,3.158
0.041,0.402,0.874,9.155,3.418,4.7,25.207,2.413
0.024,0.395,0.896,8.118,5.798,7.263,24.314,2.029
0.046,0.396,0.904,8.728,7.874,5.737,24.343,2.023
0.037,0.374,0.897,9.399,9.583,4.822,23.683,2.187
0.088,0.357,0.931,9.033,9.888,4.395,22.741,2.849
0.129,0.335,0.919,8.423,5.676,-0.549,21.766,4.378
0.206,0.345,0.898,4.578,2.686,-2.197,21.017,6.729
0.177,0.309,0.91,-0.244,4.089,-2.625,19.962,8.757
0.187,0.314,0.911,7.08,2.93,-3.601,19.388,10.255
0.181,0.333,0.925,2.441,-0.427,-0.122,19.293,10.977
0.206,0.322,0.911,5.798,2.747,-0.977,18.918,10.962
0.221,0.28,0.909,4.883,2.075,1.099,18.48,11.625
0.173,0.301,0.919,-1.099,0.793,0.732,18.268,11.42
0.174,0.321,0.912,-0.122,1.953,-0.61,18.157,11.368
0.19,0.354,0.869,-5.432,0,0.366,18.796,11.22
0.265,0.332,0.875,-9.888,1.465,0.122,19.625,11.886
0.173,0.391,0.903,0.305,-3.54,7.141,20.947,11.838
0.098,0.332,0.924,1.709,-6.592,3.54,21.131,10.706
0.101,0.342,0.921,4.517,-3.967,2.563,20.788,9.315
0.117,0.361,0.886,-1.404,-3.967,-0.732,21.256,7.144
0.108,0.388,0.896,-1.404,-4.395,-1.404,21.3,6.217
0.094,0.394,0.92,1.16,-4.517,-0.122,22.148,6.133
0.023,0.391,0.904,-0.427,-4.761,-1.77,22.952,4.999
0.055,0.264,0.853,3.235,-2.075,-5.127,21.841,4.166
0.059,0.453,0.909,1.343,-0.488,-5.981,22.667,3.398
0.077,0.421,0.909,3.54,1.831,-3.296,23.106,3.139
0.007,0.379,0.885,0.183,2.747,-2.014,23.055,2.915
0.002,0.422,0.915,0.671,-4.761,-0.916,24.804,2.075
0.061,0.341,0.899,21.729,-0.916,1.648,23.394,2.136
aX,aY,aZ,gX,gY,gZ,Roll,Pitch
0.041,0.368,0.886,11.658,2.869,1.709,22.827,1.627
0.038,0.412,0.934,-2.563,7.568,-3.235,22.991,2.061
0.067,0.427,0.853,11.108,3.784,3.967,23.402,3.042
0.033,0.411,0.89,5.92,3.357,4.883,24.406,2.625
0.024,0.393,0.887,3.784,5.31,6.836,24.734,2.367
0.07,0.391,0.92,12.024,7.446,5.676,24.532,2.837
0.031,0.351,0.893,4.883,8.057,7.019,23.285,2.306
0.058,0.387,0.893,-9.033,7.996,5.737,22.933,2.679
0.101,0.397,0.868,5.188,5.737,1.953,23.071,3.822
0.13,0.442,0.87,-0.244,4.272,-2.197,24.023,4.73
0.155,0.417,0.875,-2.441,-1.587,-5.737,24.93,6.536
0.143,0.454,0.873,-0.549,-3.601,-1.892,25.867,7.743
0.137,0.438,0.869,-0.366,1.343,3.723,26.355,8.225
0.134,0.479,0.846,2.258,2.625,2.014,26.988,8.297
0.158,0.481,0.84,9.827,5.31,-1.099,28.056,8.337
0.224,0.426,0.85,14.709,4.028,-0.854,27.75,9.578
0.133,0.454,0.876,-4.211,-0.671,1.892,27.922,9.487
0.265,0.413,0.821,-7.935,-0.122,-0.488,27.042,11.523
0.186,0.454,0.857,-6.47,1.343,3.479,26.532,11.918
0.177,0.512,0.816,0,-1.831,3.601,27.947,11.216
0.107,0.492,0.824,2.075,-2.502,4.028,28.823,10.915
0.117,0.498,0.839,-4.822,-7.202,2.197,30,8.615
0.054,0.517,0.839,-6.409,-7.446,2.93,31.071,6.674
0.016,0.577,0.812,-18.005,-11.414,-9.888,32.055,4.282
-0.003,0.534,0.825,-5.981,-5.31,-5.432,32.634,2.664
0.013,0.55,0.808,5.493,-1.831,-5.981,33.544,1.153
-0.016,0.549,0.786,-4.883,-1.709,-4.456,34.379,0.138
0.025,0.562,0.787,7.385,0.671,1.953,34.398,0.279
aX,aY,aZ,gX,gY,gZ,Roll,Pitch
0.001,0.38,0.901,18.127,0.183,2.197,31.879,0.349
0.017,0.362,0.93,-19.775,3.235,-2.136,28.569,0.406
0.012,0.382,0.895,2.319,2.686,-2.075,25.635,0.809
-0.027,0.43,0.913,3.357,6.042,-2.258,23.131,0.037
-0.015,0.342,0.934,13.977,10.742,-3.662,22.44,-0.206
0.053,0.372,0.924,2.075,12.329,-3.296,22.599,0.322
0.12,0.424,0.876,-0.793,6.653,-0.61,23.252,1.879
0.15,0.331,0.924,8.728,3.479,3.906,21.803,4.465
0.147,0.337,0.927,1.77,1.038,0.244,21.677,6.812
0.166,0.326,0.907,2.991,0.732,-0.916,21.06,8.494
0.153,0.347,0.925,-0.244,0.305,-2.686,19.749,8.933
0.184,0.34,0.904,-1.953,5.31,-6.836,19.942,9.451
0.196,0.323,0.901,1.16,1.709,-0.183,19.837,10.226
0.19,0.317,0.905,5.188,1.038,3.235,19.703,10.589
0.179,0.326,0.903,2.93,1.404,8.423,19.491,11.031
0.191,0.333,0.889,0,1.099,9.155,19.464,11.172
0.155,0.377,0.885,-8.911,-7.141,2.93,20.323,10.571
0.102,0.38,0.896,-0.305,-7.507,-1.953,21.318,9.26
0.054,0.415,0.892,-10.193,-11.414,-3.235,22.704,7.398
0.009,0.449,0.93,2.258,-6.042,1.648,24.136,4.639
0.026,0.417,0.883,-5.005,-5.981,-4.944,24.727,2.769
-0.041,0.238,0.85,-9.338,-5.371,-6.47,23.131,0.716
-0.032,0.419,0.858,5.554,1.099,-3.357,23.391,-0.569
0.001,0.453,0.855,9.583,0.244,-3.235,23.9,-0.703
aX,aY,aZ,gX,gY,gZ,Roll,Pitch
0.037,0.38,0.901,17.761,-2.808,-0.366,23.284,-0.541
-0.012,0.372,0.919,-5.371,2.502,-1.099,24.705,-0.092
-0.009,0.468,0.891,-1.221,1.831,-0.732,25.141,0.245
-0.021,0.404,0.914,18.921,9.033,6.348,24.133,-0.065
-0.021,0.388,0.933,12.512,10.498,4.211,24.036,-0.894
0.011,0.345,0.879,5.066,14.771,8.484,23.913,-0.578
0.122,0.388,0.934,6.348,9.033,-2.014,22.6,1.312
0.13,0.351,0.89,1.953,4.822,-4.028,21.992,3.528
0.168,0.344,0.896,6.775,2.258,-7.202,21.497,6.36
0.168,0.317,0.916,3.601,4.517,-4.7,20.807,8.593
0.194,0.345,0.912,-2.319,5.31,-5.615,20.268,9.72
0.206,0.339,0.884,1.404,4.456,-7.996,20.068,10.831
0.215,0.36,0.885,0.61,1.77,-4.578,20.299,11.521
0.168,0.358,0.907,1.587,2.075,-1.16,20.898,11.498
0.229,0.333,0.864,-3.357,4.028,-4.761,20.932,12.144
0.226,0.375,0.937,2.93,-3.052,10.559,21.125,12.245
0.222,0.361,0.875,-0.427,-2.808,7.141,21.186,12.368
0.253,0.384,0.903,-5.249,1.831,10.437,21.452,13.554
0.19,0.372,0.873,2.197,-0.305,11.597,21.992,12.928
0.137,0.397,0.867,0.427,-4.822,7.019,22.78,11.836
0.1,0.453,0.876,-1.16,-5.188,6.409,24.153,9.974
0.089,0.44,0.831,-4.333,-8.179,0.793,25.505,7.681
0.044,0.458,0.864,0.061,-8.667,-2.197,26.828,5.487
-0.024,0.415,0.827,-0.488,-2.686,-7.385,27.422,3.127
0.01,0.517,0.86,-6.897,-3.967,-3.357,28.412,1.773
0.031,0.485,0.844,11.475,0.793,-2.563,28.921,0.902
-0.044,0.466,0.833,26.489,-3.479,0.305,29.248,-0.406
aX,aY,aZ,gX,gY,gZ,Roll,Pitch
0.046,0.587,0.909,24.719,0.854,-0.793,30.819,0.612
0,0.484,0.887,-5.554,3.296,-0.366,30.21,0.477
0.008,0.448,0.853,27.344,4.822,-1.221,29.687,0.145
-0.002,0.422,0.874,8.423,3.601,-0.183,28.857,0.737
0.007,0.395,0.884,10.803,8.301,6.653,26.566,0.19
-0.004,0.441,0.895,-0.488,9.277,13.062,25.949,0.129
0.128,0.409,0.911,-4.089,8.728,3.784,25.058,1.878
0.13,0.39,0.887,7.812,8.423,0.183,24.513,3.8
0.104,0.362,0.915,14.832,4.761,6.47,23.845,5.189
0.161,0.361,0.891,0.977,5.188,-7.324,22.691,7.614
0.182,0.387,0.869,30.029,8.911,-8.606,22.573,8.494
0.205,0.35,0.905,2.38,5.249,-10.742,21.858,9.58
0.246,0.289,0.9,11.658,10.986,-6.042,20.797,11.724
0.298,0.315,0.857,-5.31,5.31,-5.188,20.166,13.849
0.248,0.329,0.889,-3.357,-0.549,4.7,19.179,14.79
0.286,0.33,0.871,-4.395,-2.869,7.324,18.941,16.094
0.295,0.39,0.857,12.207,-4.944,18.433,20.468,16.811
0.214,0.312,0.898,7.141,-8.301,16.296,20.358,15.472
0.079,0.326,0.927,0,-1.282,3.418,20.357,12.942
0.132,0.378,0.909,-9.521,-0.671,0.305,21.008,10.569
0.134,0.45,0.859,-4.15,-6.287,2.197,21.961,8.187
0.044,0.397,0.898,5.859,-5.554,-1.77,23.237,5.665
0.007,0.316,0.844,2.502,-3.845,-6.897,23.637,4.723
0.011,0.447,0.869,12.878,0.732,-5.31,24.866,2.93
0.052,0.477,0.898,0.244,-3.906,-7.812,25.014,1.676
-0.019,0.413,0.847,7.507,-7.874,-3.357,25.547,0.752
aX,aY,aZ,gX,gY,gZ,Roll,Pitch
0.029,0.439,0.883,16.296,1.587,-0.122,26.909,1.052
0.001,0.423,0.908,-3.723,5.676,-3.052,26.344,0.902
0.04,0.454,0.845,13.062,2.075,1.038,26.38,0.739
0.024,0.453,0.895,5.981,2.808,3.113,26.596,1.36
0.018,0.398,0.896,11.841,6.836,7.019,25.988,1.211
0.034,0.422,0.857,10.132,8.85,8.728,26.295,1.714
0.055,0.398,0.863,3.235,8.545,10.376,25.435,1.938
0.129,0.368,0.923,6.653,6.104,3.296,24.083,3.487
0.072,0.391,0.906,-0.122,4.639,2.869,23.893,4.261
0.11,0.425,0.879,9.521,4.211,-2.502,23.761,5.344
0.146,0.382,0.891,4.456,1.587,-3.052,23.329,6.64
0.148,0.342,0.902,4.761,2.625,-2.136,23.099,6.971
0.141,0.362,0.899,3.54,3.479,-6.836,22.704,8.015
0.19,0.369,0.883,3.052,3.479,-6.287,21.852,9.211
0.208,0.344,0.899,6.348,5.493,-1.77,21.227,10.13
0.193,0.349,0.893,1.465,1.892,-0.671,21.316,10.793
0.162,0.329,0.909,2.808,-1.709,3.479,20.785,11.101
0.191,0.348,0.892,-1.038,1.587,0.977,20.453,11.108
0.202,0.356,0.882,0.305,-2.502,5.371,20.717,11.048
0.229,0.372,0.887,-2.747,-1.526,13.123,21.028,11.548
0.129,0.391,0.897,0.305,-2.625,13.916,21.974,11.037
0.095,0.387,0.897,1.831,3.296,2.014,22.588,9.604
0.134,0.396,0.892,-1.404,-2.075,-0.671,23.129,8.561
0.113,0.398,0.887,-9.033,-0.977,0,23.567,6.868
0.12,0.444,0.858,-8.301,-5.371,-4.822,24.518,6.76
0.058,0.466,0.873,-5.859,-7.69,-3.906,25.73,6.205
0.047,0.475,0.874,-5.371,-4.456,-5.249,26.942,4.92
0.007,0.501,0.858,-4.272,-3.54,-3.235,28.523,3.361
0.027,0.48,0.841,29.907,-2.625,-0.61,29.13,2.022
aX,aY,aZ,gX,gY,gZ,Roll,Pitch
0.084,0.488,0.896,9.827,-0.671,-2.075,29.235,2.386
0.057,0.446,0.886,-2.502,0.305,-0.061,28.783,2.537
0.046,0.486,0.894,-6.226,6.287,6.042,28.33,3.082
0.012,0.373,0.861,1.892,3.784,4.15,26.845,2.885
-0.016,0.415,0.876,14.709,8.484,6.592,26.052,1.465
0.059,0.402,0.874,-0.793,7.568,6.958,25.546,1.497
0.098,0.467,0.907,2.869,4.272,1.343,25.207,2.262
0.123,0.427,0.872,6.958,1.404,-2.197,25.805,3.861
0.167,0.437,0.877,7.935,0.061,-2.38,25.966,6.495
0.148,0.392,0.897,5.493,-1.831,-0.732,25.614,7.744
0.118,0.385,0.897,6.042,2.136,-1.038,24.586,8.115
0.12,0.372,0.896,5.493,3.235,-4.089,23.718,8.07
0.208,0.383,0.865,16.174,2.563,-3.357,23.031,8.722
0.124,0.364,0.912,-2.747,1.587,2.38,22.595,8.373
0.152,0.341,0.899,2.808,2.563,-1.16,21.953,8.903
0.147,0.364,0.909,-0.732,3.113,-1.038,21.747,9.273
0.22,0.38,0.868,-5.371,2.441,1.526,21.679,9.441
0.205,0.411,0.88,0.122,1.648,10.498,22.398,10.635
0.176,0.348,0.882,28.503,1.343,2.686,22.554,11.015
0.124,0.334,0.898,0.366,-2.747,3.601,22.239,10.74
0.108,0.392,0.892,-4.272,-2.93,-1.892,22.383,9.051
0.111,0.436,0.885,-4.578,-8.667,-15.93,22.779,7.644
0.115,0.415,0.891,-10.315,-4.883,-0.793,23.676,6.685
0.038,0.441,0.888,1.16,-2.197,-0.793,25.205,5.395
0.032,0.463,0.9,1.831,-0.305,-2.197,26.123,4.253
0.079,0.419,0.881,6.531,0.793,-5.615,25.949,3.811
aX,aY,aZ,gX,gY,gZ,Roll,Pitch
0.081,0.374,0.895,6.653,1.099,0.732,25.405,3.334
0.099,0.436,0.904,-9.155,5.676,0.854,25.214,4.205
0.046,0.436,0.878,18.86,3.479,4.333,24.998,4.447
0.073,0.395,0.905,7.874,-1.038,1.892,24.531,4.341
0.048,0.391,0.874,8.301,5.127,12.146,24.897,3.877
0.023,0.463,0.867,7.385,10.559,12.573,25.513,2.78
0.057,0.406,0.887,11.475,7.996,10.498,25.05,2.949
0.059,0.366,0.935,5.981,7.935,4.333,24.491,2.739
0.185,0.422,0.864,14.404,0.977,-3.601,24.909,4.732
0.217,0.362,0.884,2.93,-4.578,-2.258,23.328,7.583
0.143,0.349,0.901,5.432,1.221,1.77,22.413,8.84
0.127,0.353,0.927,-5.92,2.38,0.366,22.216,9.851
0.119,0.357,0.906,6.958,5.249,-2.258,21.174,8.858
0.168,0.343,0.901,5.249,3.784,-4.272,20.875,8.139
0.172,0.312,0.904,-3.357,-3.357,1.282,20.328,8.569
0.135,0.335,0.909,3.479,0.732,-1.221,20.168,8.731
0.146,0.345,0.906,1.343,0.916,-0.671,19.986,9.142
0.176,0.347,0.906,-2.258,-1.343,0.366,20.005,9.236
0.161,0.377,0.896,1.831,1.831,5.981,20.948,9.044
0.201,0.367,0.899,2.136,2.136,6.775,21.374,9.988
0.145,0.386,0.893,-0.549,-5.066,2.563,21.996,9.964
0.078,0.375,0.908,-3.601,0.793,5.615,22.461,8.532
0.122,0.426,0.883,0.122,0.671,0.244,23.226,7.967
0.1,0.399,0.885,28.687,-1.709,-2.258,23.803,6.505
0.055,0.377,0.906,0.366,-7.507,-4.578,23.659,5.188
0.016,0.366,0.912,-1.77,-2.441,-3.296,23.545,4.28
0.01,0.399,0.922,0.916,0.305,-1.16,22.999,2.617
0.124,0.394,0.885,6.47,2.625,-2.38,22.928,2.972
0.096,0.384,0.888,7.69,1.099,-2.258,23.113,3.584
0.035,0.377,0.899,5.31,-3.54,-6.897,23.328,3.874
aX,aY,aZ,gX,gY,gZ,Roll,Pitch
0.067,0.325,0.89,9.888,0.427,-0.732,22.48,4.784
0.032,0.343,0.953,-9.888,4.517,-1.221,21.458,3.377
0.03,0.325,0.91,9.155,0.977,-0.366,20.548,2.401
0.079,0.339,0.932,10.864,4.456,7.568,19.847,3.038
0.064,0.317,0.936,6.836,5.859,8.179,19.518,2.96
0.05,0.326,0.923,2.441,5.859,10.376,19.414,3.256
0.101,0.323,0.943,6.226,6.531,5.493,19.215,4.252
0.193,0.302,0.902,7.141,6.836,3.052,18.803,5.94
0.172,0.294,0.93,0,-0.977,-0.122,18.447,7.523
0.119,0.298,0.926,4.028,0.671,-2.808,18,8.523
0.146,0.304,0.923,2.808,3.235,-5.066,17.779,9.229
0.154,0.276,0.938,2.014,4.7,-3.052,17.277,8.606
0.184,0.312,0.917,3.906,2.93,-2.197,17.573,8.793
0.159,0.269,0.926,4.7,2.258,-1.099,17.15,9.388
0.199,0.274,0.92,3.113,1.465,-1.709,16.717,10.181
0.161,0.275,0.949,-0.793,-0.549,0.305,16.666,10.255
0.207,0.29,0.926,-2.014,3.845,4.822,16.312,10.58
0.241,0.283,0.904,5.066,2.747,7.629,16.52,11.796
0.214,0.307,0.906,6.836,1.343,10.986,17.018,12.024
0.128,0.24,0.935,7.507,-0.183,14.587,16.612,11.629
0.111,0.282,0.935,-1.892,-0.366,2.197,16.541,10.226
0.141,0.319,0.917,-2.625,-4.883,-3.784,17.075,8.725
0.109,0.296,0.93,-2.441,-3.906,-1.221,16.879,7.155
0.085,0.355,0.927,-2.686,-4.272,-1.038,18.533,6.49
0.082,0.341,0.915,-0.427,-2.869,-2.136,19.457,6.082
0.057,0.375,0.936,-7.263,-5.188,-3.357,20.158,4.817
0.059,0.329,0.903,1.404,0.61,-3.418,20.767,4.116
0.092,0.384,0.912,0.427,1.282,-5.249,21.234,4.218
0.089,0.366,0.914,1.099,0,-3.174,21.571,4.311
0.118,0.356,0.901,-0.061,-1.16,-6.531,21.472,5.246
0.002,0.334,0.9,20.142,-4.761,-3.906,21.583,4.41
aX,aY,aZ,gX,gY,gZ,Roll,Pitch
0.109,0.351,0.885,19.836,1.953,-0.488,21.275,4.698
0.096,0.402,0.925,-27.039,1.831,9.033,21.7,4.761
0.096,0.344,0.906,7.507,1.526,-0.061,21.528,4.438
0.066,0.304,0.922,9.216,3.601,3.113,20.961,5.361
0.088,0.315,0.918,10.864,4.944,2.808,20.302,5.039
0.113,0.305,0.909,8.667,4.028,4.395,19.039,5.354
0.092,0.282,0.93,6.714,4.089,5.493,18.061,5.297
0.104,0.245,0.93,8.667,3.479,1.404,17.186,5.873
0.155,0.286,0.926,-1.77,-4.028,-1.709,16.72,6.848
0.147,0.296,0.932,2.441,1.099,-2.625,16.482,7.315
0.18,0.285,0.924,5.92,5.371,-2.869,16.49,8.602
0.17,0.266,0.933,2.686,6.592,-3.662,16.723,9.528
0.186,0.245,0.904,-3.54,5.737,-13.062,16.202,10.066
0.246,0.246,0.906,1.648,5.188,-5.066,15.514,11.6
0.217,0.297,0.912,0.122,0.305,3.418,15.711,12.151
0.235,0.281,0.908,0.061,2.563,-0.061,15.967,13.159
0.356,0.224,0.852,-0.977,2.441,2.014,15.704,15.793
0.291,0.308,0.885,2.747,0.549,9.521,16.613,16.436
0.233,0.286,0.908,4.639,-3.54,14.526,16.452,16.7
0.166,0.31,0.928,5.188,-6.348,9.338,16.87,15.604
0.106,0.277,0.942,3.479,0.488,4.028,17.491,11.692
0.128,0.298,0.929,-0.488,-1.404,-1.221,17.3,9.249
0.19,0.296,0.889,-2.625,-4.517,-2.197,17.545,8.657
0.125,0.346,0.904,-8.118,-8.057,-2.991,18.168,8.093
0.076,0.355,0.918,-6.531,-2.625,-2.869,19.39,7.654
0.079,0.382,0.887,-9.155,-4.456,-8.789,20.789,6.965
0.112,0.398,0.908,-2.625,-1.404,-7.141,22.133,5.743
0.096,0.35,0.872,13.977,-0.488,-2.991,22.393,5.365
aX,aY,aZ,gX,gY,gZ,Roll,Pitch
0.08,0.404,0.895,21.484,-2.563,-3.418,23.183,5.427
0.086,0.365,0.923,-6.104,2.502,-0.061,22.749,5.492
0.079,0.37,0.862,3.601,2.502,0.183,22.651,5.082
0.086,0.375,0.889,8.179,3.296,4.761,22.896,4.893
0.044,0.378,0.896,5.859,3.479,5.127,22.567,4.372
0.033,0.329,0.894,11.658,6.531,10.193,22.255,3.628
0.053,0.351,0.88,7.019,8.24,12.634,21.892,3.232
0.127,0.307,0.938,-2.869,3.174,5.981,20.667,3.82
0.141,0.377,0.896,9.705,2.319,-1.953,20.601,5.252
0.164,0.372,0.896,2.686,-0.671,-1.953,21.117,7.14
0.142,0.314,0.926,8.301,5.92,4.822,20.317,8.366
0.188,0.298,0.913,7.996,6.104,-8.301,20.274,9.312
0.162,0.281,0.928,6.592,11.23,-7.446,18.778,9.61
0.317,0.256,0.865,0.916,15.869,-13.611,17.164,11.996
0.239,0.32,0.915,-0.732,-3.174,7.69,17.201,13.406
0.248,0.309,0.893,0.671,-1.831,4.333,17.376,14.314
0.25,0.336,0.894,1.465,-3.052,6.47,18.198,15.617
0.167,0.34,0.909,-0.549,-2.747,7.751,19.335,13.236
0.167,0.36,0.905,2.869,0.366,4.883,20.009,12.205
0.156,0.346,0.901,-3.662,-0.977,3.052,20.565,10.835
0.193,0.363,0.89,1.953,-1.038,6.531,21.002,10.005
0.1,0.39,0.9,-10.193,-7.08,-1.892,21.79,9.024
0.105,0.41,0.906,-7.751,-5.005,-1.831,22.513,8.087
0.065,0.422,0.888,-1.77,1.77,-0.305,23.673,6.73
0.076,0.43,0.885,4.7,0.061,-2.869,24.667,5.005
0.142,0.423,0.891,-1.526,-2.563,-2.686,25.134,5.596
0.058,0.396,0.884,2.747,-3.601,-3.601,25.117,4.956
0.11,0.398,0.9,1.587,-2.563,-1.648,24.705,5.608
0.069,0.393,0.878,0.916,-6.775,-0.244,24.256,5.542
aX,aY,aZ,gX,gY,gZ,Roll,Pitch