aX,aY,aZ,gX,gY,gZ,Roll,Pitch
0.014,0.974,0.125,19.348,1.648,1.404,82.639,0.805
0.014,0.977,0.155,2.258,0.854,0.305,81.8,0.82
0.006,0.968,0.13,-27.71,4.639,-0.916,81.986,0.66
0.062,0.923,0.124,-11.902,2.075,1.282,81.963,1.41
0.019,0.99,0.058,-0.732,3.113,-0.061,82.946,1.49
0.026,0.95,0.104,-0.977,-2.197,-0.61,83.583,1.68
0.014,0.958,0.048,-0.549,-17.761,-0.977,84.682,1.813
0.012,0.986,0.013,3.357,-5.371,-0.549,86.545,1.055
0.021,0.973,0.104,7.935,-9.949,-1.038,85.873,1.079
0.029,0.979,0.067,1.526,-18.494,-1.282,86.412,1.113
0.013,0.996,0.027,-1.526,-14.282,-1.16,86.743,1.091
0.026,0.995,0.1,7.263,-15.93,-1.404,85.496,1.3
0.044,0.962,0.114,7.507,-27.283,-2.014,85.238,1.647
0.029,0.971,0.106,5.615,-34.241,-2.441,84.688,1.642
0.028,0.964,0.076,10.498,-38.086,-2.319,83.895,1.87
0.01,0.974,0.08,5.859,-32.288,-2.441,84.217,1.634
0.009,0.971,0.094,-0.366,-28.87,-2.625,84.644,1.107
0.024,0.968,0.098,4.272,-33.142,-2.319,84.77,1.04
0.005,0.96,0.099,-1.099,-34.668,-3.113,84.487,0.706
0.021,0.983,0.107,-7.69,-36.926,-3.357,84.079,0.878
-0.005,0.979,0.025,-8.667,-31.86,-2.625,85.106,0.675
0.001,0.976,0.055,4.211,-27.954,-1.526,85.785,0.336
0.008,0.978,0.031,-0.305,-25.208,-1.587,86.783,0.369
0.005,0.982,0.041,-1.526,-22.034,-1.221,87.759,0.134
0.013,0.986,0.033,-4.822,-22.156,-1.221,87.616,0.392
-0.01,0.982,-0.004,-1.953,-19.226,-0.244,88.485,0.233
-0.005,0.981,-0.043,-1.343,-14.404,-0.183,89.59,0.048
-0.004,0.991,-0.037,0.793,-5.005,-0.061,89.26,-0.091
-0.004,0.988,-0.013,2.014,-0.916,0.061,88.556,-0.328
-0.01,0.981,-0.037,0.549,-1.831,0.061,88.08,-0.333
0.006,0.99,-0.022,11.719,7.996,-0.793,88.405,-0.179
-0.005,0.965,0.006,18.555,12.268,0.244,89.01,-0.189
-0.013,0.979,0.043,12.756,17.578,1.099,89.635,-0.329
0.005,0.982,0.068,10.925,21.24,2.014,88.628,-0.105
0.013,0.982,0.09,13.611,27.832,3.784,86.989,-0.002
0.015,0.977,0.128,12.146,28.076,4.333,85.205,0.281
0.009,0.974,0.135,14.526,30.151,5.676,83.847,0.599
0.012,0.953,0.171,13.794,34.851,7.385,82.294,0.697
0.01,0.964,0.216,9.583,33.752,8.057,80.434,0.661
0.017,0.966,0.245,5.676,31.189,8.057,78.73,0.692
0.002,0.952,0.219,6.104,30.273,7.812,77.467,0.602
0.015,0.964,0.243,-6.348,36.377,9.399,76.476,0.647
0.019,0.96,0.215,-10.132,37.109,5.005,76.479,0.766
0.023,0.974,0.187,-0.854,40.222,7.568,77.316,0.851
0.029,0.989,0.19,-8.545,44.373,8.179,77.812,1.233
0.031,0.984,0.172,10.01,36.56,7.385,78.84,1.456
0.055,0.951,0.215,1.831,24.78,5.188,78.73,1.984
0.021,0.955,0.208,1.648,10.925,1.465,78.396,1.973
0.014,0.902,0.086,-53.589,18.25,3.418,79.66,1.802
0.028,1.023,0.141,-7.446,5.31,1.526,80.215,1.749
0.023,0.985,0.022,8.972,-0.427,-0.305,83.133,1.281
aX,aY,aZ,gX,gY,gZ,Roll,Pitch
0.011,1,0.111,11.841,-0.366,-0.977,84.612,1.118
0.005,0.981,0.141,-17.7,3.906,2.319,83.978,0.964
0.037,0.989,0.088,-5.92,4.395,0.732,84.654,1.101
0.018,0.986,0.064,0.549,-1.221,-0.244,84.082,1.029
0.042,0.967,0.107,5.554,-12.939,0.122,83.992,1.488
0.022,0.971,0.111,4.639,-31.067,-1.282,84.319,1.74
0.019,0.988,0.042,-5.005,-40.955,-2.136,85.037,1.479
0.01,0.983,0.016,-0.916,-39.551,-1.282,85.732,1.354
0.012,0.984,-0.003,1.038,-30.334,-1.16,87.403,0.915
0.001,0.99,0.018,1.404,-22.583,-0.305,88.777,0.61
0.009,0.982,0.037,3.357,-24.841,-1.099,88.903,0.474
0.004,0.982,0.008,5.371,-25.574,-0.977,89.055,0.389
0,0.983,0.002,1.587,-21.606,-1.038,89.051,0.208
0.012,0.992,0.035,11.902,-14.038,-0.427,88.762,0.366
0.01,0.974,0.093,8.362,-20.325,-1.343,87.963,0.372
0.001,0.99,0.019,-3.845,-22.339,-1.526,87.815,0.326
0,0.97,0.033,4.944,-19.226,-1.099,87.351,0.338
0.005,0.986,0.04,-1.343,-19.775,-0.854,87.289,0.23
0.002,0.977,0.039,4.517,-20.447,-1.16,88.082,0.119
-0.014,0.982,0.013,-3.113,-14.465,-1.038,88.16,-0.093
-0.003,0.978,0.053,4.333,-12.329,-0.61,87.866,-0.137
0.001,0.994,0.036,-4.15,-18.616,-0.732,87.932,-0.188
0.002,0.991,0.016,-1.709,-16.785,-0.488,88.273,-0.195
0.001,0.991,0.016,-2.014,-17.09,-0.305,88.253,0.018
0,0.986,-0.011,-0.854,-16.052,-0.183,89.181,0.053
-0.006,0.987,-0.017,-0.244,-11.902,0,89.931,-0.046
-0.025,0.989,-0.042,0.244,-6.653,-0.305,89.098,-0.43
-0.002,0.995,-0.017,4.7,1.77,-0.061,88.649,-0.479
-0.005,0.988,0.006,7.751,3.845,0,88.842,-0.54
-0.005,0.996,-0.01,6.836,5.005,0.122,88.945,-0.534
-0.003,0.986,0.04,12.451,8.362,2.136,89.644,-0.215
-0.003,0.978,-0.001,11.902,18.311,0.427,89.445,-0.218
0.005,0.988,0.035,8.545,28.748,3.235,89.066,-0.087
-0.003,0.977,0.105,7.996,33.264,4.089,87.399,-0.059
-0.001,0.982,0.121,7.996,31.25,4.272,86.22,-0.032
0.004,0.977,0.125,13.733,39.917,6.592,84.381,0.059
0.004,0.964,0.191,9.338,40.344,8.057,82.088,0.057
0,0.951,0.215,3.54,27.588,5.676,80.449,0.112
0.004,0.963,0.185,3.845,33.386,6.714,79.485,0.18
0.01,0.961,0.206,-0.244,35.828,7.202,78.279,0.275
0.026,0.949,0.215,7.69,33.813,8.301,77.874,0.594
0.006,0.964,0.21,3.845,30.396,6.836,77.98,0.677
0.012,0.967,0.237,2.563,31.189,7.751,77.237,0.799
0.026,0.946,0.249,-0.671,17.395,4.272,76.566,1.033
0.008,0.964,0.182,-6.897,18.005,3.784,77.097,0.761
0.01,0.992,0.138,-12.756,15.198,2.258,78.189,0.818
0.024,0.986,0.135,-4.333,6.897,0.549,79.685,0.982
0.012,0.977,0.097,2.563,0.61,0,81.941,0.779
0.004,0.977,0.088,-0.549,0.916,0,83.316,0.724
0.021,0.969,0.11,11.719,0.122,0.122,83.67,0.889
aX,aY,aZ,gX,gY,gZ,Roll,Pitch
0.009,0.95,0.186,5.127,0.122,0.854,82.89,0.674
0.05,0.998,0.098,-42.969,5.92,2.441,82.84,1.221
0.017,0.96,0.165,-2.686,-2.197,-0.061,81.677,1.41
0.037,1.04,0.132,-8.362,-15.991,-0.488,81.467,1.613
0.011,0.989,0.107,-3.662,-28.32,-2.075,82.63,1.644
0.007,0.989,0.032,-4.15,-27.039,-1.709,83.656,1.033
0.021,0.991,0.084,2.991,-23.01,-0.671,84.814,1.091
0.01,0.963,0.081,-2.075,-44.739,-2.441,85.512,0.72
-0.001,0.968,0,4.272,-39.978,-2.258,87.055,0.539
0.017,0.991,0.044,-2.747,-35.461,-1.831,86.846,0.69
0.019,0.982,0.019,5.066,-34.18,-2.075,87.775,0.666
0.003,0.98,0.053,2.258,-30.518,-1.831,88.208,0.554
0.004,0.988,0.052,-0.427,-29.968,-1.77,87.479,0.621
0.003,0.985,0.024,-0.183,-25.208,-1.343,87.807,0.416
-0.002,0.978,0.019,-2.747,-23.499,-0.793,87.839,0.105
-0.009,0.988,0.032,1.526,-18.677,-0.61,88.16,-0.06
-0.001,0.99,0.007,-3.296,-19.287,-0.732,88.807,-0.133
-0.005,0.985,-0.009,-1.77,-14.709,-0.183,89.251,-0.254
-0.01,0.978,-0.016,3.174,-12.573,-0.183,89.578,-0.376
-0.014,0.989,-0.029,0.244,-10.315,0.244,89.171,-0.459
-0.022,0.99,-0.035,3.54,-5.798,-1.099,88.497,-0.759
-0.007,0.991,-0.043,0.793,0.977,0.244,88.057,-0.781
-0.003,0.988,-0.01,2.808,2.686,0.244,88.184,-0.666
0.007,0.988,0,14.282,8.24,0.916,88.676,-0.364
-0.015,0.997,0.022,6.104,6.104,1.038,89.482,-0.259
-0.003,1.008,-0.022,6.348,22.583,0.549,89.755,-0.199
-0.004,0.983,0.027,5.493,18.616,0.427,89.547,-0.213
-0.002,1.004,0.009,-5.371,20.691,5.615,89.367,-0.336
-0.014,0.992,0.03,2.075,18.066,0.549,89.274,-0.325
-0.015,0.99,0.036,5.005,17.09,1.16,88.433,-0.504
-0.012,1.011,0.021,24.902,22.644,-0.183,88.486,-0.621
-0.015,0.96,0.076,27.405,27.954,2.075,87.5,-0.813
0.002,0.978,0.135,6.104,34.851,4.456,86.059,-0.585
0.002,0.98,0.152,1.343,28.32,3.967,84.41,-0.33
-0.012,0.984,0.117,-9.583,23.376,2.197,82.981,-0.327
-0.001,0.996,0.082,-0.854,25.757,1.77,82.975,-0.125
-0.007,0.974,0.098,7.812,31.372,0.671,83.505,-0.258
0.024,0.964,0.112,6.226,30.701,3.967,84.05,0.055
0.009,0.972,0.115,1.343,30.64,4.639,84.052,0.356
0.011,0.976,0.115,0,31.982,4.883,83.521,0.529
0.026,0.987,0.151,7.507,30.09,4.333,82.72,1.007
0.02,0.978,0.153,6.653,22.827,3.54,82.169,0.946
0.002,0.974,0.146,2.258,19.043,3.418,81.733,0.848
0.01,0.975,0.139,2.136,20.081,2.441,81.396,0.845
0.021,0.982,0.164,-2.747,10.742,2.258,81.209,0.782
0.002,0.988,0.116,-3.418,1.343,-0.122,81.776,0.519
-0.007,0.965,0.159,10.986,-3.296,0.305,81.587,0.393
aX,aY,aZ,gX,gY,gZ,Roll,Pitch
-0.027,0.914,0.154,4.456,0.549,-0.671,81.234,-0.158
0.001,0.953,0.137,-22.827,2.869,2.441,81.547,-0.462
0.018,0.947,0.123,5.371,2.014,-0.244,81.376,-0.231
-0.002,0.987,0.098,-0.977,-0.671,-0.122,82.319,-0.162
0,0.986,0.091,-4.761,-8.484,-1.465,83.38,0.249
0.022,0.988,0.108,-1.831,-21.118,-2.075,83.842,0.562
0.01,0.984,0.09,2.808,-23.376,-1.77,84.369,0.439
0.013,0.961,0.066,4.272,-32.837,-1.831,84.779,0.663
0.001,0.986,0.074,-4.883,-29.236,-1.892,85.027,0.678
0.001,0.982,0.053,1.343,-25.208,-1.77,85.841,0.362
0.011,0.978,0.064,2.747,-29.053,-1.953,86.216,0.384
0.015,0.987,0.064,0.916,-35.889,-2.197,86.267,0.415
0,0.97,0.042,-2.686,-32.959,-2.38,86.708,0.396
0.006,0.989,0.046,2.502,-31.128,-2.136,86.815,0.466
0.006,0.982,0.045,-0.854,-30.579,-1.831,87.098,0.393
0.009,0.99,0.033,-2.136,-27.222,-1.526,87.558,0.297
0.003,0.977,0.029,-1.16,-28.564,-1.038,87.753,0.339
-0.009,0.996,-0.009,-2.625,-21.606,-0.854,88.57,0.131
-0.005,0.992,0.006,-2.686,-18.677,-0.366,89.154,-0.027
-0.002,0.989,-0.012,-1.892,-17.761,-0.732,89.732,-0.179
-0.022,0.993,-0.04,3.601,-2.258,0.183,89.035,-0.543
0.001,0.981,0,5.493,1.404,-0.061,89.215,-0.405
0,0.987,-0.01,2.625,1.343,-0.061,89.032,-0.338
-0.004,0.988,0.002,4.395,1.953,0,89.195,-0.375
0,0.988,-0.03,6.775,4.944,0,89.43,-0.053
-0.02,1.005,0.035,-16.113,15.442,1.16,89.637,-0.36
0,0.991,0.008,9.338,18.066,0.122,89.594,-0.35
-0.003,0.989,0.035,13.855,22.766,0.916,89.243,-0.326
0,0.98,0.06,19.592,32.104,2.319,87.991,-0.317
0,0.988,0.102,12.146,33.203,4.7,87.046,-0.023
0.012,0.974,0.149,9.949,32.104,4.944,84.974,0.147
0.005,0.966,0.173,6.165,24.414,4.272,82.931,0.254
0,0.973,0.164,2.686,27.161,4.883,81.417,0.248
0.008,0.976,0.194,7.935,28.442,4.883,80.061,0.367
0.005,0.969,0.19,1.343,31.433,6.531,79.476,0.269
0.012,0.969,0.196,0.183,31.555,6.775,79.168,0.371
0.021,0.937,0.219,4.639,23.193,5.493,78.258,0.681
-0.001,0.96,0.187,0,23.682,4.883,78.317,0.541
0.012,0.969,0.197,4.578,25.269,5.615,78.206,0.637
0.007,0.97,0.207,2.869,24.658,5.676,78.052,0.573
0.01,0.956,0.194,-3.418,25.208,5.981,78.482,0.405
-0.001,0.964,0.188,-1.16,24.719,4.7,78.48,0.417
0.005,0.931,0.192,3.113,2.136,0.793,78.441,0.325
0,0.964,0.165,2.014,1.099,-0.122,79.034,0.22
0.003,0.946,0.174,3.784,-0.732,1.16,79.3,0.126
aX,aY,aZ,gX,gY,gZ,Roll,Pitch
0.006,0.965,0.188,3.052,-0.732,0,79.3,0.226
0.002,0.98,0.237,-22.339,4.333,-0.305,78.794,0.166
0.016,0.963,0.168,-0.916,-3.235,-1.099,78.736,0.388
0.016,0.932,0.171,8.484,-24.109,-2.93,78.729,0.581
0.008,0.977,0.14,-6.165,-30.518,-3.845,79.454,0.609
0.007,0.974,0.122,0.793,-28.748,-2.563,81.091,0.694
-0.001,0.964,0.113,-0.732,-31.921,-3.052,81.916,0.455
0.001,0.974,0.057,-4.761,-31.311,-2.808,83.657,0.225
-0.005,0.979,0.085,-0.549,-22.339,-2.197,84.467,0.038
0.006,0.983,0.091,-1.343,-25.696,-2.319,84.931,0.016
0.007,0.982,0.065,-1.16,-28.259,-2.258,85.643,0.123
0.002,0.98,0.045,-1.892,-28.015,-2.319,85.832,0.132
0.006,0.986,0.061,6.226,-30.823,-1.16,86.182,0.291
0.026,0.984,0.046,-5.493,-33.875,-3.052,86.789,0.593
0.008,1,0.035,-2.258,-34.363,-2.441,87.225,0.605
0.004,0.99,0.041,5.31,-24.658,-1.404,87.275,0.637
0.004,0.974,0.056,5.615,-26.978,-2.258,87.34,0.6
0.004,0.999,0.098,9.338,-23.865,-2.075,86.663,0.27
0.003,1,0.036,-8.728,-10.193,-2.319,86.652,0.203
0.012,0.936,0.08,0.977,-12.085,-2.075,86.039,0.321
-0.027,1.005,0.12,22.095,-7.812,1.709,85.151,-0.124
0.006,0.984,0.047,-9.277,-8.179,-1.343,85.871,-0.096
-0.006,0.978,0.107,5.737,2.197,-0.305,84.818,-0.234
0.002,0.984,0.084,3.052,3.052,0.549,84.815,-0.379
-0.015,0.982,0.089,12.512,5.981,0.427,85.252,-0.206
-0.009,0.978,0.095,-2.441,19.47,3.052,84.539,-0.421
-0.011,0.979,0.151,18.25,29.48,5.859,83.89,-0.491
0.025,0.961,0.229,10.62,25.696,5.249,81.767,-0.158
0.006,0.956,0.212,5.554,21.545,4.517,79.932,0.142
0.004,0.966,0.204,6.226,25.513,6.042,78.334,0.333
0.009,0.961,0.225,4.211,33.203,7.935,77.22,0.633
0.02,0.947,0.255,6.958,33.813,9.705,76.814,0.573
0.021,0.942,0.288,-1.099,28.076,7.751,75.685,0.787
0.012,0.951,0.209,-5.188,30.823,7.935,75.55,0.904
0.02,0.934,0.251,-1.099,28.32,7.263,75.077,1.058
0.01,0.966,0.181,-9.216,33.325,6.653,76.205,0.913
0.011,0.957,0.195,1.099,37.231,8.667,77.596,0.777
0.018,0.967,0.213,-4.639,32.776,7.629,77.592,0.859
0.017,0.959,0.218,0.549,30.029,6.592,78.138,0.825
0.015,0.964,0.168,0.061,20.386,4.639,78.309,0.899
0.017,0.972,0.195,6.897,20.935,4.7,78.34,0.976
0.004,0.963,0.185,1.343,18.555,4.028,78.746,0.772
0.021,0.964,0.22,-1.038,23.315,5.31,78.729,0.824
0,0.963,0.158,-2.319,1.892,0.671,78.883,0.599
0.001,0.975,0.187,-7.69,-0.488,-0.061,79.021,0.375
0.012,0.971,0.172,4.089,0.427,0.793,79.215,0.495
aX,aY,aZ,gX,gY,gZ,Roll,Pitch
-0.007,0.93,0.262,16.296,-2.808,0.549,78.534,0.089
0.012,0.944,0.249,-14.954,5.249,-0.183,77.167,0.27
0.01,0.997,0.174,8.911,0.854,0.061,77.412,0.398
0.021,0.978,0.188,-2.869,0.427,-0.793,77.202,0.533
0.005,0.948,0.205,-0.244,-1.038,0.061,78.052,0.701
0.02,0.957,0.156,-11.719,-5.554,-0.61,79.399,0.821
0.029,0.973,0.193,-1.16,-18.799,-2.075,79.049,1.095
0.02,0.974,0.121,-1.282,-26.367,-2.808,79.997,1.082
0.014,0.976,0.123,2.136,-24.78,-2.563,81.217,1.214
0.001,0.972,0.127,1.831,-24.292,-2.563,81.704,0.93
0.016,0.975,0.128,2.502,-25.757,-2.747,82.654,0.744
0.014,0.959,0.134,5.005,-34.058,-3.296,82.456,0.659
0.013,0.973,0.104,-1.221,-35.522,-3.662,82.732,0.64
0.001,0.977,0.08,-4.639,-25.513,-2.258,83.429,0.646
0.006,0.973,0.086,-2.441,-25.208,-2.258,84.055,0.505
0.008,0.999,0.043,-3.601,-18.555,-1.953,85.428,0.418
0.019,0.976,0.126,10.254,-24.17,-2.014,85.101,0.515
0.01,0.98,0.091,-4.639,-40.161,-2.686,84.929,0.635
0,0.993,0.039,3.113,-32.288,-1.831,85.64,0.54
0,0.985,0.036,-3.967,-25.024,-1.587,85.744,0.426
0.003,0.981,0.048,-2.014,-21.24,-1.526,86.901,0.184
-0.006,0.985,-0.002,-1.77,-16.724,-0.671,88.25,-0.039
-0.013,0.985,-0.037,1.648,-4.456,-0.671,89.311,-0.224
0,0.983,0.021,6.226,0.977,-0.305,89.505,-0.226
0.001,0.989,0.017,1.648,0.61,-0.183,89.746,-0.254
0.002,0.988,0.019,0.732,0.244,0.061,89.675,-0.142
-0.002,0.989,0.016,3.845,1.831,0,88.934,0.021
-0.01,0.996,0.021,11.536,10.01,0.305,88.933,-0.132
-0.004,1.02,0.081,4.333,11.292,0.732,88.012,-0.205
-0.008,0.982,0.053,-2.808,9.46,1.16,87.513,-0.351
-0.005,0.995,0.041,10.071,25.818,2.319,87.156,-0.403
0.006,0.978,0.122,7.08,32.043,3.357,85.72,-0.163
0.017,0.957,0.166,11.841,29.541,4.7,84.419,0.142
0.018,0.968,0.144,0.488,23.926,5.127,83.058,0.52
0.013,0.989,0.13,-6.226,27.527,4.15,81.74,0.79
0.009,0.974,0.13,1.221,35.339,5.615,81.608,0.833
0.043,0.966,0.154,-0.793,34.668,7.385,81.753,1.212
-0.01,0.971,0.126,-0.61,40.283,6.287,82.074,0.799
0.02,0.968,0.157,13.977,40.71,7.08,81.632,0.896
0.02,0.976,0.13,7.263,33.325,6.287,81.614,1.054
0.023,0.971,0.18,4.211,32.227,5.859,81.282,0.765
0.006,0.964,0.166,3.845,21.973,4.089,80.669,1.004
0.006,0.964,0.156,6.531,23.743,4.089,80.697,0.81
0.009,0.935,0.129,-13.062,23.315,7.08,80.631,0.661
0.024,0.958,0.197,-2.991,20.02,4.883,80.351,0.671
0.001,0.965,0.18,1.648,2.625,0.549,80.146,0.6
-0.012,1.004,0.129,20.02,-5.798,1.282,80.657,0.329
aX,aY,aZ,gX,gY,gZ,Roll,Pitch
0.005,0.974,0.116,13.55,-1.404,-2.319,80.936,0.259
0.028,1.064,0.065,-3.784,1.221,-1.648,83.027,0.312
0.019,0.98,0.114,-1.465,0.61,0.061,83.963,0.562
0.021,0.974,0.12,-1.648,2.075,0.427,83.973,1.03
0.015,0.988,0.101,-1.709,-2.441,-0.183,84.174,1.173
0.035,0.963,0.159,-0.977,-20.203,-0.977,82.665,1.302
0.027,0.962,0.105,6.775,-35.95,-2.38,82.747,1.427
0.019,0.986,0.08,-2.563,-39.124,-1.404,83.343,1.404
0.02,0.979,0.052,-0.061,-36.987,-2.136,84.014,1.484
0.001,0.982,0.031,0.061,-28.503,-1.465,85.965,0.976
-0.006,0.988,0.047,-1.526,-22.034,-1.465,86.908,0.493
-0.002,0.987,0.023,1.221,-11.536,-1.038,87.765,0.186
-0.007,0.99,0.076,3.906,-12.268,-1.099,87.418,-0.204
0.004,0.985,0.06,-1.282,-19.958,-1.465,87.005,-0.152
0.003,0.989,0.044,-1.587,-20.874,-1.099,87.049,-0.027
0.002,0.984,0.042,-0.122,-21.545,-1.221,86.781,0.027
0.015,0.995,0.027,-4.578,-22.827,-0.793,87.477,0.339
0.016,0.985,0.018,0.549,-25.33,-0.549,88.05,0.506
0.005,0.986,-0.007,0.305,-27.832,0,88.736,0.545
0.006,0.987,-0.031,-3.723,-28.992,0.427,89.383,0.61
0.003,0.977,-0.047,2.93,-21.24,0.427,88.925,0.441
0.002,0.988,-0.029,3.113,-14.282,0.366,88.32,0.247
0.001,0.984,-0.016,2.808,-17.456,0.244,88.197,0.183
-0.009,0.984,-0.044,2.563,-1.892,-0.061,88.01,-0.041
0,0.982,-0.012,2.93,0.977,0.183,88.513,-0.087
0.001,0.989,-0.032,1.587,0.671,0.061,88.479,-0.099
-0.031,1.016,-0.005,6.897,2.441,-0.488,88.537,-0.562
0,0.99,0.003,6.592,4.761,0.305,89.2,-0.429
0,0.981,0.022,11.353,7.812,1.221,89.537,-0.424
0.001,0.998,0.021,7.568,15.198,0.61,89.286,-0.43
0,0.983,0.043,12.268,18.433,0.366,88.722,0.023
0.004,0.98,0.064,6.042,21.729,1.831,87.827,0.073
0.011,0.984,0.091,8.667,28.503,3.235,86.814,0.23
0.006,0.975,0.138,9.033,24.475,3.296,85.09,0.311
0.01,0.982,0.133,6.714,23.865,3.174,83.783,0.447
0.005,0.977,0.13,11.169,28.381,4.15,82.823,0.466
0.012,0.977,0.189,7.141,30.334,5.737,81.409,0.474
0.018,0.957,0.212,6.653,28.015,5.676,80.308,0.638
0.015,0.971,0.195,2.93,27.832,5.737,79.39,0.717
0.017,0.958,0.205,5.554,27.1,5.92,78.255,0.89
0.026,0.959,0.212,4.883,26.855,6.104,77.849,1.101
0.016,0.958,0.203,1.465,21.057,4.333,77.972,1.08
0.012,0.962,0.189,2.808,23.132,4.944,78.024,1.036
0.032,0.962,0.224,4.028,21.362,4.944,77.747,1.255
0.037,0.966,0.231,5.737,18.555,3.662,77.487,1.416
0.01,0.943,0.193,4.211,19.348,3.174,77.6,1.324
0.02,0.966,0.214,5.188,24.902,5.371,77.249,1.435
0.033,0.946,0.25,-2.197,15.442,4.456,76.84,1.462
0.019,0.964,0.213,0.244,0.916,-0.305,77.112,1.192
0.014,0.951,0.212,2.93,2.686,1.099,76.862,1.255
0.025,0.948,0.214,5.554,2.014,0.427,76.799,1.337
-0.003,0.956,0.229,24.719,-3.906,4.211,77.17,0.805
aX,aY,aZ,gX,gY,gZ,Roll,Pitch
0.009,0.946,0.23,13.611,-0.427,0.732,76.883,0.672
0.099,0.984,0.22,-19.47,5.859,-1.404,76.759,1.904
0.017,0.954,0.191,-0.977,0.427,0.61,77.118,1.789
0.011,0.964,0.181,-2.93,-2.686,0.305,77.779,1.987
0.021,0.976,0.092,-16.296,-12.695,-1.77,79.772,2.146
0.026,0.97,0.128,1.587,-24.231,-2.441,81.217,1.095
0.013,0.978,0.112,-0.305,-27.71,-2.625,82.416,1.023
0.028,0.979,0.099,1.038,-24.109,-1.831,83.574,1.269
0.024,0.973,0.113,0.793,-27.893,-2.197,83.259,1.314
0.011,0.965,0.099,-1.221,-38.147,-2.808,83.711,1.089
0.002,0.983,0.053,-6.897,-36.804,-2.563,84.591,0.928
0.01,0.982,0.053,-1.038,-29.724,-2.319,85.305,0.67
0.012,0.98,0.051,-1.648,-28.259,-1.953,86.222,0.503
0.003,0.986,0.033,-2.502,-23.804,-1.77,87.212,0.384
0.01,0.984,0.048,-0.549,-24.475,-1.099,87.259,0.505
0.015,0.982,0.032,-0.916,-28.015,-1.526,87.537,0.579
0.006,0.987,0.009,-0.671,-27.1,-1.16,88.16,0.492
0.006,0.982,-0.003,-1.099,-24.78,-0.793,88.625,0.547
0.001,0.995,-0.006,-0.977,-22.4,-0.671,89.366,0.422
0.006,0.983,-0.01,1.648,-18.066,-0.488,89.682,0.284
0.001,0.985,-0.022,0.854,-12.268,-0.366,89.368,0.207
0.004,0.979,0,5.615,-11.597,-0.183,89.42,0.177
0.004,1.016,-0.054,0.061,4.456,-0.061,88.735,0.21
0.004,0.99,-0.006,-0.549,0.366,0,88.806,0.185
0.003,0.988,-0.004,2.258,1.526,0.122,89.058,0.208
0.015,0.984,-0.012,6.104,2.502,0.183,88.85,0.357
-0.003,0.99,0.021,16.235,11.23,0.854,89.738,0.262
0.001,0.998,0.026,3.235,16.846,1.77,89.504,0.223
0.001,0.991,0.073,7.751,21.912,2.075,88.425,0.201
0.01,0.98,0.107,8.789,20.996,1.953,86.718,0.136
0.006,0.98,0.096,6.714,25.94,3.723,85.62,0.268
0.008,0.972,0.167,13.123,25.94,4.028,83.545,0.368
0.012,0.974,0.17,8.789,23.132,4.089,82.111,0.527
0.016,0.961,0.198,6.165,21.118,4.395,80.756,0.611
0.013,0.963,0.206,4.883,19.958,3.662,79.133,0.706
0.017,0.968,0.2,0.427,15.503,2.869,78.643,0.835
0.009,0.967,0.187,5.371,16.113,2.93,78.379,0.786
0.006,0.96,0.177,4.089,23.132,4.639,78.686,0.651
0.012,0.962,0.198,-1.099,26.184,5.127,78.802,0.646
0.021,0.959,0.195,-0.732,26.184,5.676,78.852,0.704
0.025,0.971,0.203,5.92,24.719,5.127,78.625,0.943
0.02,0.958,0.205,3.54,22.156,4.517,78.212,1.138
0.026,0.96,0.224,5.066,21.24,4.822,77.816,1.332
0.031,0.962,0.212,6.348,18.921,5.432,77.559,1.472
0.018,0.956,0.205,3.723,22.034,5.981,77.486,1.372
0.024,0.957,0.217,2.502,26.184,7.507,77.299,1.425
0.015,0.959,0.263,3.174,29.907,8.545,76.758,1.268
0.007,0.952,0.22,3.906,26.062,7.08,76.639,0.933
0.038,0.935,0.297,1.526,15.564,3.845,75.255,1.224
0.006,0.951,0.215,4.395,1.953,-0.732,75.282,0.969
0.021,0.939,0.25,6.653,-0.916,-0.305,75.384,1.059
aX,aY,aZ,gX,gY,gZ,Roll,Pitch
-0.009,1.064,0.268,4.456,2.441,0.488,75.15,0.791
-0.011,0.87,0.107,-36.011,4.639,-2.014,77.618,0.104
0.007,0.977,0.113,4.639,1.343,-0.854,79.16,0.118
-0.003,0.975,0.126,1.892,-2.014,-1.038,81.037,-0.226
0.024,0.996,0.115,5.554,-7.69,-2.319,83.13,0.264
0.009,0.973,0.159,4.211,-8.972,-1.16,82.534,0.539
0.003,0.98,0.146,1.282,-14.221,-1.77,82.075,0.477
0.013,0.975,0.136,3.54,-14.526,-2.014,81.909,0.701
0.015,0.972,0.167,2.93,-14.954,-2.014,81.126,0.576
0.005,0.961,0.162,9.521,-19.836,-2.625,81.064,0.517
0.014,0.967,0.179,3.357,-25.269,-3.662,80.545,0.677
0.011,0.957,0.188,4.944,-32.776,-6.348,79.754,0.657
0.012,0.966,0.162,0.244,-33.752,-5.92,79.803,0.606
0.011,0.974,0.158,-2.869,-33.447,-5.859,79.895,0.697
0.019,0.978,0.165,2.258,-28.076,-4.517,80.121,0.768
0.026,0.964,0.163,4.883,-28.87,-5.249,80.477,0.983
0.021,0.97,0.187,0.427,-29.358,-5.432,80.121,1.114
0.008,0.967,0.151,-3.052,-29.297,-4.639,80.202,1.073
0.006,0.978,0.136,-3.418,-26.917,-3.967,80.634,0.891
0.009,0.967,0.126,-1.465,-25.818,-2.747,81.196,0.639
0.002,0.972,0.112,0.732,-22.705,-2.38,82.294,0.36
0.001,0.971,0.108,-1.343,-17.822,-2.197,82.923,0.259
0.008,0.974,0.115,-0.427,-17.761,-2.197,83.222,0.284
0.001,0.979,0.093,0.793,-14.954,-2.014,83.722,0.164
-0.003,0.987,0.068,-2.502,-9.766,-2.136,84.398,0.101
-0.004,0.98,0.066,0.183,-0.732,-0.427,85.031,0.028
0.009,0.972,0.105,1.831,1.038,-0.244,85.171,0.046
0.008,0.981,0.093,0.916,1.404,0.793,85.174,0.148
0.006,0.98,0.112,7.324,0.916,-0.122,84.511,0.279
-0.006,0.968,0.122,10.437,5.676,0.732,83.681,0.249
0,0.976,0.146,8.484,4.944,1.77,83.101,0.126
0.007,0.983,0.146,5.676,8.972,1.648,82.345,0.117
0.004,0.973,0.175,6.714,10.986,1.892,81.42,0.074
0.017,0.976,0.176,5.615,10.986,2.014,80.65,0.399
-0.002,0.971,0.173,6.042,20.142,3.906,80.253,0.362
0.012,0.952,0.197,7.568,26.733,6.287,79.433,0.432
0.005,0.967,0.206,5.005,29.053,6.47,78.988,0.458
-0.001,0.955,0.205,-0.183,23.987,5.798,78.526,0.209
0.034,0.947,0.272,6.775,20.02,5.615,77.013,0.74
0.009,0.953,0.249,3.235,19.165,5.066,76.285,0.697
0.008,0.945,0.234,3.113,20.874,5.798,75.803,0.74
-0.002,0.949,0.233,-0.61,20.63,7.202,75.387,0.726
-0.006,0.951,0.23,1.099,24.597,6.592,76.013,0.143
0.021,0.986,0.261,-3.174,30.029,7.141,75.958,0.315
0.018,0.951,0.253,0.854,21.729,5.92,75.703,0.452
0,0.946,0.224,1.648,25.818,5.493,75.812,0.47
0.011,0.958,0.211,1.221,19.165,5.371,76.09,0.709
0.016,0.965,0.244,5.554,21.545,5.493,76.256,0.649
0.016,0.946,0.242,6.165,24.17,7.08,76.4,0.632
0.014,0.95,0.263,3.357,19.409,4.578,75.852,0.838
0.008,0.957,0.234,4.761,19.165,5.188,75.531,0.793
0.008,0.93,0.251,11.353,22.522,6.165,75.313,0.674
0.033,0.922,0.304,-0.61,19.348,6.714,74.334,0.915
0.001,0.925,0.305,1.465,0.977,0.916,73.657,0.726
0.013,0.932,0.262,6.714,-2.747,0,73.147,0.807
aX,aY,aZ,gX,gY,gZ,Roll,Pitch
-0.001,0.972,0.226,4.517,-0.427,0.61,73.679,0.673
-0.001,0.966,0.219,-1.831,2.808,-1.77,75.061,0.18
-0.068,0.904,0.211,-12.451,1.343,-0.793,76.295,-0.837
0.014,0.968,0.17,-0.122,0.183,-0.488,77.743,-0.816
0.007,0.954,0.179,1.953,-0.427,-0.061,78.371,-0.703
0.014,0.967,0.155,-4.7,-5.249,-1.221,79.313,-0.482
0.017,0.974,0.171,0.793,-6.714,-0.427,80.057,0.77
0.034,0.976,0.201,0.305,-22.827,-2.93,79.6,1.05
0.008,0.964,0.19,-2.014,-33.386,-4.7,79.474,1.063
0.001,0.976,0.143,4.7,-28.809,-4.395,79.694,0.863
0.01,0.956,0.173,2.563,-28.259,-3.906,79.628,0.76
0.018,0.979,0.136,-2.991,-28.503,-3.906,80.584,0.531
0.002,0.966,0.141,-1.16,-28.503,-3.357,81.306,0.444
-0.012,0.977,0.11,-2.502,-28.442,-3.54,81.782,0.254
0.005,0.98,0.106,0.549,-22.095,-2.319,82.796,0.181
0.01,0.975,0.128,2.991,-26.611,-2.319,82.903,0.068
0.025,0.977,0.126,0.61,-36.987,-3.723,83.119,0.403
0.002,0.976,0.088,-1.709,-35.645,-3.052,83.429,0.608
-0.001,0.979,0.071,-2.319,-29.48,-2.625,83.946,0.527
0.005,0.982,0.05,0.427,-22.644,-2.075,85.102,0.454
-0.004,0.975,0.06,2.014,-21.423,-1.953,86.076,0.025
-0.002,0.98,0.046,-1.099,-18.616,-2.197,86.681,-0.034
-0.011,0.985,0.005,0.916,-5.615,-0.305,87.644,-0.178
0.001,0.973,0.072,5.493,1.77,0.61,87.303,-0.239
0.001,0.981,0.059,2.38,0.488,0.061,87.338,-0.162
-0.004,0.983,0.064,1.465,0.671,-0.183,87.088,-0.185
-0.027,1.01,0.085,3.906,1.404,-0.061,85.923,-0.421
-0.014,1.001,0.054,7.446,5.432,0.305,86.183,-0.63
0,0.988,0.1,9.399,7.812,1.587,85.606,-0.645
-0.016,0.989,0.083,12.451,17.212,2.136,85.305,-0.822
0.013,0.97,0.141,17.09,23.804,2.686,84.524,-0.254
0.019,0.953,0.207,15.076,19.836,3.601,82.244,0.222
0.024,0.971,0.201,6.104,23.865,4.15,80.74,0.573
0.011,0.964,0.215,7.935,24.292,5.554,78.757,0.971
0.014,0.951,0.224,7.935,27.039,6.775,77.512,0.986
0.025,0.947,0.236,7.629,30.09,8.728,77.076,1.08
0.024,0.944,0.256,3.235,32.593,9.216,76.201,1.074
0.018,0.945,0.272,3.235,28.992,8.423,75.333,1.186
0.024,0.955,0.269,-0.977,27.71,7.935,74.708,1.331
0.029,0.965,0.27,-0.183,28.992,8.606,74.294,1.37
0.016,0.957,0.26,0.366,27.1,7.507,74.305,1.26
0.01,0.928,0.235,8.667,26.245,7.446,74.75,1.144
0.02,0.941,0.235,1.221,26.184,7.69,75.173,1.086
0.013,0.959,0.246,-4.822,28.015,8.728,75.5,0.861
0.016,0.953,0.247,-1.282,27.161,6.531,75.667,0.862
0.014,0.957,0.232,-0.427,18.921,5.188,75.821,0.922
0.014,0.954,0.311,4.7,2.136,2.136,74.816,0.837
0.013,0.957,0.215,1.77,0.977,-0.183,75.253,0.843
0.001,0.96,0.225,24.475,-6.714,-1.526,75.594,0.628
aX,aY,aZ,gX,gY,gZ,Roll,Pitch
0.011,0.959,0.244,4.15,0.854,0.732,75.428,0.58
0.012,0.973,0.219,-15.503,5.127,-0.244,76.789,0.543
0.023,0.938,0.218,4.578,3.174,1.099,76.67,0.682
0.012,0.958,0.195,0.793,0.549,0.061,77.083,0.844
0.006,0.957,0.193,-8.362,-7.69,-1.099,77.819,0.77
0.034,0.969,0.203,-5.737,-24.902,-2.625,78.011,1.097
0.009,0.975,0.11,-3.113,-26.733,-2.93,79.675,0.888
0.02,0.979,0.137,-4.211,-26.672,-2.197,80.544,0.998
0.001,0.975,0.121,6.287,-34.485,-3.662,81.611,0.921
0.01,0.965,0.105,-0.793,-33.936,-4.211,83.038,0.571
0.011,0.977,0.117,1.526,-28.564,-2.93,82.949,0.602
0.002,0.982,0.108,-0.305,-23.376,-2.197,83.388,0.342
0.009,0.974,0.127,1.831,-23.926,-2.38,83.295,0.46
0,0.977,0.12,0,-31.006,-2.563,83.113,0.32
0.013,0.993,0.105,-5.554,-39.551,-3.174,83.3,0.345
-0.001,0.981,0.063,0.427,-33.081,-2.441,83.947,0.303
-0.002,0.973,0.053,0.366,-28.442,-2.258,85.025,0.144
-0.007,0.988,0.034,-1.77,-22.095,-1.892,86.286,0.044
0.013,0.98,0.061,-3.113,-22.705,-1.831,86.915,0.046
0.002,0.984,0.031,-0.854,-21.545,-1.282,87.382,0.078
0.006,0.98,0.013,-0.916,-18.127,-1.404,87.953,0.196
0.002,0.983,0.014,-0.61,-14.526,-1.16,88.226,0.32
-0.009,0.988,-0.005,1.953,-5.188,-0.61,89.225,0.004
0.001,0.988,0.025,5.981,1.709,-0.122,89.316,-0.005
0,0.987,0.026,2.869,1.526,0.366,89.126,-0.096
-0.001,0.99,0.027,2.747,1.587,0.183,88.932,-0.136
0.009,0.979,0.023,4.15,2.075,0.183,88.522,0.117
-0.018,1.008,0.015,17.273,9.949,0.183,88.672,-0.152
-0.007,0.98,0.065,10.376,22.461,2.502,88.105,-0.242
0.007,0.975,0.135,13.611,24.841,2.686,86.536,-0.119
0.016,0.967,0.175,12.573,23.926,4.211,84.324,-0.014
0.009,0.961,0.199,10.437,24.597,5.493,81.579,0.378
0.006,0.963,0.206,10.071,28.015,6.287,79.503,0.568
0.013,0.953,0.227,10.803,32.349,8.667,78.123,0.655
0.016,0.943,0.263,9.399,32.593,9.033,76.807,0.66
0.007,0.946,0.264,3.357,30.64,8.362,75.834,0.629
0.01,0.953,0.273,2.747,32.776,8.972,74.84,0.674
0.009,0.938,0.27,2.747,34.119,9.155,74.181,0.603
0.026,0.951,0.28,-0.793,29.724,9.399,73.968,0.74
0.014,0.954,0.28,5.127,30.334,9.766,73.777,0.83
0.014,0.952,0.277,4.456,27.649,8.606,73.722,0.891
0.022,0.94,0.289,7.263,26.794,8.911,73.458,1.089
0.019,0.943,0.296,3.845,21.118,6.775,73.205,0.997
0.023,0.926,0.324,5.188,20.996,7.019,72.457,1.142
0.006,0.939,0.28,2.197,19.104,5.859,72.368,1.026
0.033,0.92,0.339,3.296,18.066,6.531,71.581,1.184
0,0.948,0.287,0.549,1.892,0.366,71.741,0.913
0.009,0.932,0.287,5.859,-0.61,-0.854,72.295,0.705
0.001,0.929,0.33,29.419,-4.761,0.549,71.557,0.637
aX,aY,aZ,gX,gY,gZ,Roll,Pitch
0.006,0.943,0.282,4.089,0.916,-0.122,72.458,0.236
-0.001,0.952,0.254,-13.733,3.54,-1.709,72.932,0.212
0.007,0.929,0.235,-16.113,-0.671,0.122,73.649,0.181
0.013,0.955,0.214,1.221,-0.671,0,75.383,0.351
0.012,0.976,0.193,-8.362,-10.437,-2.075,76.761,0.44
0.02,0.965,0.182,-1.587,-20.325,-2.747,77.82,0.744
0.016,0.964,0.152,-0.732,-22.583,-2.686,79.095,0.866
0.015,0.982,0.144,-2.502,-25.269,-2.869,80.168,0.902
0.013,0.99,0.146,3.479,-25.818,-3.235,80.859,0.919
0.005,0.969,0.155,6.165,-21.729,-2.869,81.278,0.703
0.009,0.967,0.168,2.563,-23.987,-3.296,81.065,0.605
0.021,0.971,0.161,-3.601,-27.222,-4.211,80.79,0.688
0.01,0.969,0.133,-0.061,-23.743,-2.563,80.939,0.651
0.007,0.971,0.126,-1.709,-25.757,-2.991,81.352,0.683
0.014,0.976,0.136,-1.16,-25.391,-2.38,81.821,0.755
0.011,0.979,0.117,-5.31,-34.424,-3.357,82.483,0.604
0.013,0.984,0.088,-5.31,-36.56,-2.991,83.153,0.647
0.01,0.983,0.07,2.38,-29.297,-2.319,83.972,0.69
0.004,0.984,0.076,1.16,-26.672,-2.197,84.859,0.553
0.008,0.98,0.085,1.77,-24.902,-2.075,85.324,0.514
-0.019,0.978,0.06,0,-14.648,-1.77,85.758,0.041
-0.032,0.984,0.022,-1.16,-2.319,-0.427,86.408,-0.574
0.002,0.972,0.093,1.526,0.61,-0.305,86.156,-0.608
-0.008,0.979,0.078,2.686,1.282,-0.061,86.21,-0.837
-0.013,0.993,0.06,6.836,5.92,0.488,86.239,-0.746
-0.031,0.902,0.077,16.052,12.39,3.052,85.368,-0.745
-0.001,0.986,0.116,7.568,15.442,2.686,85.035,-0.791
0.001,0.978,0.128,10.864,25.574,3.723,84.32,-0.658
0.005,0.969,0.173,7.812,24.902,3.845,82.641,-0.38
0.01,0.958,0.162,2.014,30.09,6.226,81.517,0.235
0.01,0.966,0.199,16.296,38.757,9.033,80.269,0.392
0.009,0.909,0.255,11.536,39.063,10.864,78.251,0.513
0.026,0.94,0.285,8.301,41.687,12.146,76.54,0.82
0.022,0.934,0.289,1.16,34.485,9.949,74.64,0.986
0.022,0.949,0.277,1.465,31.494,9.277,73.467,1.162
0.017,0.929,0.281,8.118,29.297,9.949,73.175,1.274
0.027,0.94,0.282,3.113,28.809,9.949,73.214,1.281
0.021,0.938,0.292,5.066,29.602,10.071,73.19,1.271
0.012,0.941,0.307,4.639,30.457,10.925,72.739,1.129
0.018,0.939,0.322,8.179,28.931,9.583,72.216,1.136
0.022,0.912,0.337,1.16,23.926,8.85,71.334,1.068
0,0.95,0.29,-5.005,1.465,0.427,71.423,0.758
0.013,0.924,0.314,0.916,-0.183,-0.488,71.256,0.774
0.005,0.944,0.302,-3.052,-0.183,0.061,71.562,0.584
aX,aY,aZ,gX,gY,gZ,Roll,Pitch
0.052,0.922,0.283,24.963,-2.075,1.221,72.332,1.032
0,0.93,0.29,-15.503,4.089,-0.732,72.258,1.028
0.014,0.952,0.251,0.61,1.099,0.427,73.257,1.037
0.006,0.958,0.242,-1.526,0.488,0.061,74.157,1.05
0.013,0.947,0.231,-3.784,-3.784,-0.732,75.009,0.464
0.002,0.958,0.229,1.587,-3.052,-1.221,75.968,0.5
0.013,0.968,0.215,-5.188,-6.104,-1.343,76.529,0.492
0.036,1.002,0.245,1.709,-3.845,-0.488,76.617,0.917
0.04,0.957,0.247,-3.113,-32.41,-5.798,76.399,1.304
0.007,0.983,0.164,2.93,-34.729,-6.409,77.368,1.377
0.019,0.966,0.224,18.86,-29.907,-5.371,77.233,1.457
0.036,0.954,0.305,10.864,-41.565,-9.583,76.238,1.464
0.012,0.928,0.249,-0.854,-50.171,-14.343,76.142,1.072
0.012,0.959,0.223,-3.418,-42.175,-12.207,75.23,1.14
0.014,0.943,0.217,-12.39,-43.274,-10.498,75.235,1.08
0.001,0.982,0.14,-11.292,-27.527,-5.31,77.708,0.583
0.013,0.967,0.183,-1.282,-27.832,-3.967,78.773,0.586
-0.001,0.957,0.134,-6.348,-34.729,-4.639,80.048,0.403
-0.001,0.987,0.077,-6.409,-24.048,-2.502,82.181,0.178
-0.004,0.984,0.099,-2.441,-16.541,-1.709,82.776,0.094
0.008,0.988,0.089,-2.014,-14.771,-1.77,84.18,0.03
0,0.988,0.086,-0.977,-13.977,-1.16,84.911,0.046
-0.003,0.984,0.053,-0.061,-10.559,-1.526,85.254,0.021
-0.014,0.972,0.029,2.869,-2.197,-0.061,86.266,-0.115
0,0.977,0.083,1.709,0.61,-0.122,86.335,-0.233
-0.003,0.978,0.081,3.357,0.488,0.061,86.395,-0.286
0.001,0.985,0.071,3.906,1.953,0.061,86.141,-0.232
0.003,0.976,0.095,17.761,11.658,1.465,85.187,0.012
-0.014,0.982,0.082,2.686,18.188,2.625,85.195,-0.197
-0.004,0.965,0.132,14.526,29.114,5.066,84.439,-0.212
0.015,0.968,0.19,14.832,34.424,7.019,82.692,-0.002
0.02,0.962,0.202,10.742,37.415,8.301,81.111,0.246
0.012,0.951,0.263,10.925,39.368,10.742,78.419,0.625
0.017,0.939,0.289,12.39,39.429,12.024,76.094,0.928
0.022,0.923,0.309,4.578,38.025,12.329,74.242,1.027
0.024,0.937,0.311,1.77,35.095,11.719,72.611,1.084
0.011,0.941,0.281,1.526,39.917,14.099,72.319,1.078
0.001,0.93,0.314,4.456,44.556,14.954,71.935,0.85
0.031,0.933,0.35,5.31,33.875,11.902,71.412,0.982
0.023,0.924,0.349,0.671,18.25,6.531,70.834,0.97
0.014,0.921,0.33,-4.211,9.155,3.784,70.062,1.015
0.01,0.919,0.311,5.859,1.587,2.014,70.055,1.147
0.002,0.967,0.253,10.254,11.841,3.601,71.564,0.727
-0.009,0.935,0.229,1.709,23.926,7.629,73.293,0.258
0.017,0.852,0.312,2.686,1.953,0.061,73.253,0.308
0.012,0.941,0.269,2.319,0,-0.488,73.937,0.335
0.015,0.938,0.287,20.813,-4.578,2.808,73.325,0.527
aX,aY,aZ,gX,gY,gZ,Roll,Pitch