aX,aY,aZ,gX,gY,gZ,Roll,Pitch
0.004,1.005,0.078,6.47,-1.099,0.854,85.569,0.236
-0.024,0.987,0.056,2.563,0.732,0.854,86.13,-0.564
-0.062,0.94,0.046,-11.23,6.348,-1.587,86.152,-1.6
-0.005,0.981,0.019,1.648,1.831,-0.244,86.837,-1.276
-0.008,0.984,0.062,-4.456,1.16,-0.549,86.954,-1.459
-0.001,0.985,0.027,4.883,-1.038,-0.61,87.476,-1.121
0.007,0.96,0.085,9.583,-17.212,-0.305,87.178,-0.093
0.009,0.98,0.035,3.662,-27.161,-1.648,86.94,0.116
0.015,0.973,0.08,10.315,-36.072,-2.502,86.631,0.444
0.015,0.959,0.073,11.292,-41.992,-3.052,85.914,0.681
0.01,0.994,0.071,3.845,-43.396,-3.174,86.143,0.713
0.007,1.001,0.074,-2.319,-37.842,-2.686,85.605,0.68
0.004,1,0.077,-1.099,-36.133,-2.502,85.709,0.524
-0.042,1.076,0.069,-12.756,-26.123,-1.526,85.897,-0.293
-0.005,0.969,0.047,-4.578,-17.029,-1.465,86.187,-0.511
0.001,0.989,0.059,4.517,-13.123,-1.038,86.371,-0.599
-0.016,0.991,-0.001,1.404,-5.066,-0.488,87.356,-0.89
0.001,0.962,0.091,4.639,1.77,0,87.104,-0.289
-0.005,0.995,0.057,5.31,1.648,-0.061,86.986,-0.28
0.001,0.988,0.047,9.033,4.944,0.732,87.166,-0.273
-0.001,0.974,0.09,10.864,7.263,1.709,85.839,-0.046
-0.015,0.997,0.046,6.958,20.508,2.258,86.522,-0.277
0.002,0.981,0.094,6.592,30.457,3.845,85.983,-0.181
0.007,0.981,0.098,6.409,33.264,4.211,85.237,-0.096
-0.004,0.983,0.089,0.427,41.565,5.92,85.271,-0.145
0.004,0.974,0.103,2.136,52.551,8.789,84.415,0.126
0.031,0.975,0.138,5.981,55.725,8.972,83.737,0.544
0.058,0.937,0.152,1.648,44.434,8.118,82.788,1.287
-0.007,0.952,0.088,-18.799,33.325,5.737,82.744,1.254
0.007,0.948,0.097,3.357,31.311,3.113,82.777,1.319
0.017,0.892,0.187,7.202,0.488,-0.244,81.931,1.136
0.007,0.984,0.094,1.099,0.916,-0.366,82.964,0.362
-0.015,0.956,0.052,6.226,-1.709,-0.671,83.513,0.241
0.004,0.981,0.079,2.686,-1.404,-1.77,83.835,0.193
aX,aY,aZ,gX,gY,gZ,Roll,Pitch
0.048,1.043,0.121,14.648,-1.953,-0.671,84.978,0.629
0.012,0.962,0.127,-20.752,5.31,0.488,84.468,0.701
0.005,0.968,0.08,2.197,0.732,-0.61,84.054,0.993
0.025,0.989,0.132,8.606,-4.395,-0.488,83.259,1.291
0.028,0.99,0.127,5.92,-26.306,-2.014,83.131,1.018
0.017,0.987,0.094,-1.282,-40.649,-3.54,83.622,1.094
0.042,0.981,0.094,13.611,-47.546,-4.517,83.334,1.621
0.017,1.01,0.089,2.747,-39.978,-3.54,84.004,1.492
0.015,0.976,0.141,5.554,-44.312,-5.127,83.831,1.308
-0.036,1.034,0.05,-6.042,-35.706,-3.845,84.649,0.527
0.006,1,0.11,4.089,-21.423,-2.258,84.469,0.007
0.016,0.977,0.157,3.296,-24.658,-2.747,83.454,0.002
-0.009,0.987,0.082,-3.479,-23.987,-2.441,84.289,-0.331
-0.016,0.995,0.037,-1.587,-7.507,-0.916,84.43,-0.04
0.01,0.957,0.126,4.395,1.465,-0.061,84.135,0.025
-0.002,0.989,0.091,0.916,0.671,0.122,85.093,-0.245
-0.006,0.988,0.092,-1.099,0.671,0.061,84.953,-0.209
-0.004,1.005,0.067,10.803,11.169,2.197,84.529,-0.034
-0.014,0.993,0.075,7.202,37.292,5.188,85.301,-0.384
0.023,0.976,0.161,12.39,44.983,7.446,84.306,-0.018
0.02,0.968,0.164,3.174,44.556,7.874,83.244,0.358
0.007,0.992,0.133,1.221,43.091,7.019,82.267,0.515
0.014,0.954,0.126,7.629,46.692,7.263,81.411,0.932
0.049,0.973,0.155,9.277,47.485,7.324,81.433,1.31
0.01,0.953,0.2,-7.385,31.25,6.348,80.893,1.17
0.025,0.981,0.174,-13.977,18.005,2.93,80.245,1.441
0.014,0.953,0.132,-13.611,7.568,1.404,80.163,1.443
-0.007,0.964,0.109,-1.892,-0.183,-0.61,80.893,0.621
-0.012,0.997,0.077,2.869,0.549,-0.244,82.796,0.292
0,0.95,0.095,5.432,0,0.305,83.903,-0.074
aX,aY,aZ,gX,gY,gZ,Roll,Pitch
0.004,0.962,0.093,13.489,-2.93,-1.648,84.481,-0.228
0.027,0.982,0.128,-30.701,2.075,0.671,84.226,0.281
0.026,0.969,0.112,6.226,-1.038,-1.282,83.609,0.84
0.034,0.887,0.176,16.479,-21.667,-2.502,82.236,1.357
0.03,0.958,0.165,12.878,-42.908,-6.653,81.111,1.747
0.018,0.964,0.16,7.019,-43.091,-8.423,80.629,1.613
0.022,0.957,0.208,1.831,-38.452,-7.751,79.214,1.562
0.026,0.965,0.184,-1.16,-38.696,-7.874,79.335,1.409
0.011,0.964,0.157,-5.432,-31.982,-5.31,79.493,1.135
0.017,0.966,0.159,-7.69,-29.602,-3.906,79.515,1.123
0.012,0.971,0.137,-4.517,-27.649,-3.113,80.59,0.968
0.013,0.998,0.106,-4.761,-26.001,-2.563,81.799,0.772
-0.004,0.976,0.067,3.235,-15.32,-2.014,83.137,0.543
0.003,0.985,0.096,7.751,1.953,0.122,84.1,0.329
0.005,0.981,0.115,0,0.916,0,84.434,0.23
-0.001,1.002,0.079,8.423,7.69,1.587,84.829,0.025
0.001,0.99,0.105,15.747,32.715,5.798,84.302,0.104
0.034,0.965,0.146,13.245,45.41,8.667,83.52,0.554
0.023,0.951,0.271,10.986,44.067,11.414,81.217,0.812
0.018,0.949,0.249,-2.38,38.574,10.132,78.639,1.094
0.015,0.958,0.255,-0.916,38.696,10.437,76.406,1.289
0.025,0.96,0.26,-0.366,35.217,8.911,74.808,1.16
0.029,0.961,0.274,3.113,29.907,7.996,74.787,1.25
0.032,0.936,0.265,3.479,20.874,5.066,74.494,1.461
0.022,0.936,0.261,-2.563,7.202,1.709,74.309,1.584
0,0.942,0.167,-16.113,9.705,2.747,75.578,1.224
0.022,0.982,0.172,-13.733,10.681,1.465,77.118,1.116
0.019,0.999,0.144,3.967,-1.343,-0.916,79.06,0.913
aX,aY,aZ,gX,gY,gZ,Roll,Pitch
0.016,0.969,0.158,7.629,-0.488,1.648,80.618,0.819
0.028,1.005,0.096,-16.907,4.456,-1.831,81.718,1.22
0.023,0.974,0.131,-1.465,-2.563,-0.793,82.272,1.24
0.052,0.941,0.206,-1.831,-19.043,-1.953,81.183,1.742
0.038,0.967,0.146,5.005,-44.495,-5.249,81.273,2.067
0.061,0.935,0.171,22.827,-63.66,-9.644,79.94,2.579
0.011,0.991,0.05,-7.568,-51.697,-7.141,81.165,2.407
0.022,0.992,0.117,-2.502,-36.682,-3.845,82.639,1.939
0,0.986,0.068,-4.395,-22.888,-2.38,83.918,1.379
0.001,1.005,0.089,4.211,0.488,0.549,85.326,0.489
0.016,0.974,0.124,0.977,1.221,0.061,84.234,0.566
0.004,0.992,0.116,9.094,6.104,1.038,84.27,0.315
0.011,0.954,0.124,-2.014,6.042,1.77,83.399,0.466
0,0.981,0.068,-0.244,18.188,3.174,83.662,0.465
0.011,0.988,0.144,13.184,38.391,6.042,83.402,0.387
0.015,0.954,0.192,10.498,33.264,6.104,82.218,0.545
0.016,0.969,0.165,4.333,32.104,6.104,81.659,0.622
0.029,0.96,0.193,4.211,30.64,5.92,79.781,1.037
0.022,0.966,0.227,3.662,28.931,6.348,78.531,1.199
0.028,0.949,0.226,2.808,23.865,5.981,78.016,1.385
0.024,0.959,0.209,-2.075,25.024,5.981,77.339,1.495
0.035,0.943,0.248,2.014,17.578,4.578,76.494,1.581
0.02,0.972,0.23,-1.77,4.944,1.16,76.465,1.539
0.008,0.972,0.197,10.376,-2.991,0.671,76.982,1.242
aX,aY,aZ,gX,gY,gZ,Roll,Pitch
0.025,0.964,0.171,9.705,-0.854,-0.244,77.535,1.265
0.018,0.963,0.203,-25.452,4.761,-0.183,78.264,1.024
0.024,0.934,0.174,-2.075,-9.155,-2.136,78.951,1.108
0.049,0.957,0.19,-0.671,-27.893,-3.601,78.93,1.726
0.054,0.99,0.152,7.324,-43.396,-5.798,79.197,2.134
0.021,0.97,0.152,3.113,-46.57,-7.141,79.914,2.177
0.015,0.992,0.127,-3.967,-42.908,-5.432,80.738,2.01
0.002,1.013,0.063,2.136,-27.832,-2.686,82.761,1.311
0.001,0.971,0.128,12.146,-13.367,-2.014,83.165,0.556
0.017,0.958,0.146,0.671,-14.587,-2.136,83.243,0.501
0.012,0.981,0.134,-2.563,-12.756,-1.77,83.131,0.462
0.004,0.967,0.109,0.427,-11.658,-1.709,82.387,0.497
0.002,0.99,0.101,11.169,2.075,-0.122,82.818,0.506
0.009,0.966,0.147,0.977,1.953,0.671,82.821,0.38
0.008,0.972,0.152,3.052,1.953,0.122,82.549,0.328
-0.005,1.004,0.143,20.447,15.015,3.357,82.14,0.199
0.007,0.968,0.174,16.479,27.893,5.554,81.041,0.281
0.028,0.952,0.257,12.268,25.208,5.31,79.429,0.561
0.017,0.952,0.238,4.211,16.541,4.272,78.152,0.682
0.007,0.976,0.219,4.333,25.024,6.592,76.971,0.846
0.024,0.943,0.281,10.498,26.733,7.202,75.372,1.096
0.025,0.94,0.278,4.883,21.851,6.531,75.039,1.055
0.02,0.941,0.278,2.93,19.714,5.981,74.432,1.105
0.019,0.944,0.27,-1.099,20.935,6.592,73.593,1.29
0.025,0.942,0.282,1.892,20.752,6.165,73.576,1.299
0.027,0.929,0.284,2.075,9.949,2.808,73.439,1.328
0.008,0.938,0.218,-15.625,16.235,5.249,74.287,1.161
0.029,0.949,0.251,-22.644,17.7,4.7,74.563,1.315
0.021,0.988,0.192,-9.888,9.399,1.831,76.011,1.252
0.022,0.993,0.173,-10.071,8.484,1.404,77.788,1.166
0.017,0.976,0.119,3.601,0.916,0.671,79.271,1.29
0.019,0.98,0.142,18.127,-1.404,-0.366,80.888,1.142
aX,aY,aZ,gX,gY,gZ,Roll,Pitch
-0.017,0.977,0.218,7.935,0,0.488,80.544,0.587
0.046,0.913,0.19,-14.648,0.305,-0.122,80.087,0.957
0.014,0.969,0.166,4.639,-6.714,-1.648,79.397,0.915
0.048,0.951,0.203,-2.075,-27.039,-2.869,78.402,1.344
0.048,0.988,0.188,13,-46.997,-6.287,78.706,2.3
0.043,1.011,0.154,0.488,-54.077,-7.202,79.492,2.199
0.028,0.964,0.128,9.155,-49.194,-7.751,79.953,2.407
0.029,0.943,0.084,-10.62,-36.804,-4.15,81.654,2.141
0.008,0.96,0.097,3.235,-26.367,-2.747,83.022,1.583
0,0.982,0.06,-8.911,-20.508,-2.258,84.441,0.971
0.009,0.991,0.091,-4.639,-13.489,-1.648,85.065,0.676
0.011,0.987,0.09,2.136,-6.531,-0.549,85.059,0.416
0.017,0.983,0.078,13.489,3.357,0.549,85.344,0.545
0.009,0.974,0.115,-1.953,0.366,0.183,84.532,0.676
0.007,0.985,0.1,-0.977,-0.366,-0.183,84.406,0.648
0.01,0.987,0.096,8.24,3.357,0.305,84.326,0.624
0.005,0.984,0.085,11.108,18.066,3.174,84.245,0.443
0.009,0.968,0.144,9.644,31.738,5.859,83.824,0.441
0.02,0.96,0.188,10.803,34.058,7.019,82.485,0.644
0.025,0.951,0.212,6.653,28.503,6.287,80.711,0.874
0.007,0.965,0.175,-8.301,29.541,6.287,79.361,0.912
0.017,0.979,0.206,-2.808,32.959,6.714,78.494,1.024
0.028,0.954,0.206,10.132,30.64,6.226,78.223,1.141
0.019,0.95,0.203,3.357,27.527,5.981,78.365,1.044
0.025,0.947,0.211,-1.465,24.536,5.371,77.777,1.3
0.023,0.974,0.136,-47.302,22.827,3.662,78.75,1.389
0.017,0.971,0.096,-12.329,16.602,1.404,80.384,1.23
0.008,0.989,0.041,-7.019,9.521,0.854,82.814,1.077
0.021,0.986,0.099,2.686,4.089,-0.366,84.482,1.009
0.011,1.011,0.027,1.953,-1.953,-0.061,86.107,0.825
aX,aY,aZ,gX,gY,gZ,Roll,Pitch
0.023,0.902,0.181,9.705,-0.61,0.061,84.799,0.926
0.025,0.973,0.14,-18.738,2.38,0.793,83.309,1.177
0.036,0.959,0.075,5.31,-1.343,-1.648,83.568,1.421
0.043,0.97,0.23,12.024,-24.475,-2.319,80.464,1.909
0.058,0.97,0.141,-5.615,-63.11,-7.507,81.07,2.382
0.04,0.984,0.046,-4.028,-60.73,-5.188,82.321,2.598
0.035,0.989,0.06,5.737,-51.27,-3.052,82.586,2.561
0.02,0.979,0.061,8.789,-37.781,-2.808,84.978,2.227
0.026,0.961,0.136,9.705,-38.513,-3.906,85.235,1.764
0.032,0.952,0.095,-0.793,-43.335,-4.944,84.557,1.662
-0.031,1,-0.052,-16.174,-18.066,-1.892,86.401,0.691
-0.003,0.959,0.126,32.349,5.432,0.061,85.479,0.348
0.004,0.995,0.098,-7.446,0.122,0.305,86.074,0.025
0.012,0.981,0.109,6.836,2.563,0.549,85.887,-0.264
0.016,0.973,0.102,15.015,14.099,3.418,83.613,0.425
0,0.973,0.094,9.705,33.081,5.554,84.093,0.477
0.009,0.957,0.186,9.094,38.818,8.057,82.765,0.554
0.025,0.983,0.257,7.446,35.706,8.423,80.632,0.739
0.017,0.922,0.239,21.118,31.555,7.568,78.543,0.749
0.023,0.951,0.256,3.723,30.64,8.118,76.15,1.072
0.014,0.964,0.283,8.789,32.166,8.85,74.801,1.131
0.032,0.922,0.276,0.732,27.649,8.301,74.284,1.24
0.016,0.952,0.263,0.183,27.039,8.667,74.071,1.213
0.022,0.953,0.269,-8.545,29.297,8.728,73.894,1.2
0.031,0.947,0.263,-6.226,22.888,6.714,74.086,1.469
0.013,0.976,0.191,-10.193,21.973,5.371,75.514,1.194
0.02,0.984,0.197,-8.24,18.25,3.845,76.536,1.253
0.013,0.96,0.215,6.531,2.686,1.099,77.325,1.124
0.013,0.965,0.181,28.809,-6.592,2.808,78.554,0.851
aX,aY,aZ,gX,gY,gZ,Roll,Pitch
0.007,0.97,0.157,5.31,-0.061,0.244,79.025,0.758
0.004,0.972,0.149,-12.756,4.761,-2.258,79.697,0.522
0.014,0.959,0.155,-4.089,-2.747,-1.038,80.553,0.544
0.034,0.951,0.164,9.277,-18.494,-2.258,80.737,0.866
0.028,0.977,0.12,-1.465,-36.011,-2.686,81.253,1.182
0.038,0.989,0.108,0.061,-48.645,-3.784,81.789,1.683
0.037,1.005,0.079,6.348,-47.058,-3.54,82.862,1.996
0.01,0.967,0.066,9.277,-40.466,-3.479,84.349,1.647
0.029,0.991,0.106,24.78,-33.875,-3.845,84.558,1.651
0.006,0.963,0.134,-2.625,-29.846,-3.479,84.278,1.195
0.022,0.991,0.137,-1.831,-29.236,-2.747,83.478,0.986
0.006,0.992,0.077,-4.211,-17.7,-2.136,83.371,0.911
0.002,0.958,0.094,0.854,-9.216,-1.404,83.524,0.52
-0.001,0.992,0.091,10.559,2.93,0.488,84.2,0.421
0.004,0.976,0.119,1.404,1.282,0.488,84.445,0.147
0.002,0.986,0.095,7.69,5.554,1.038,84.18,0.089
-0.003,1,0.08,5.432,28.198,4.578,84.442,0.014
0.008,0.96,0.214,17.212,32.532,5.859,82.616,0.14
0.014,0.956,0.198,7.202,29.114,6.47,81.436,0.294
0.013,0.955,0.22,7.385,28.015,6.653,79.56,0.455
0.017,0.951,0.236,5.432,24.048,5.798,77.172,0.753
0.012,0.959,0.213,1.587,22.4,5.493,77.177,0.81
0.01,0.957,0.205,5.127,28.198,6.897,77.094,0.756
0.017,0.961,0.232,4.944,32.593,8.057,76.932,0.815
0.017,0.957,0.232,2.197,36.133,8.545,77.011,0.823
0.037,0.948,0.247,4.578,38.391,10.01,76.474,1.197
0.044,0.94,0.318,-2.258,20.691,7.019,74.785,1.68
0.014,0.955,0.203,-9.888,-2.075,0.427,75.175,1.648
0.01,0.968,0.236,31.311,-5.188,-0.122,75.173,1.535
aX,aY,aZ,gX,gY,gZ,Roll,Pitch
0.018,0.95,0.171,12.268,-0.244,0.854,76.266,1.26
0.008,0.932,0.184,-33.752,2.441,-1.77,78.189,0.739
0.028,1.019,0.182,10.193,-10.803,-1.709,78.673,0.923
0.027,0.955,0.18,2.808,-36.987,-4.639,79.409,1.178
0.06,0.969,0.135,-2.686,-45.288,-4.761,79.88,1.787
0.032,0.986,0.133,1.343,-49.316,-5.798,80.65,2.116
0.038,0.991,0.068,3.845,-50.415,-5.066,82.12,2.298
0.019,0.972,0.089,0.122,-45.593,-4.211,83.429,2.181
0.027,0.971,0.055,2.808,-38.879,-3.174,84.687,1.7
0.007,0.998,0.044,-13.123,-34.241,-2.258,86.034,1.333
-0.031,0.992,-0.069,3.784,-1.343,0.244,88.23,0.322
0.019,0.964,0.106,6.409,3.113,0.183,87.993,0.322
0.016,0.987,0.058,9.155,6.836,1.404,87.975,0.165
0.002,0.989,0.033,12.817,27.771,3.479,88.144,0.087
0.005,0.959,0.106,22.705,47.119,7.385,85.52,0.615
0.018,0.943,0.197,13.184,44.006,8.789,84.162,0.603
0.021,0.965,0.187,-3.235,38.33,8.118,82.24,0.669
0.016,0.975,0.187,1.343,38.208,7.996,79.963,0.884
0.018,0.965,0.188,4.272,37.17,7.568,78.79,1.068
0.031,0.966,0.203,5.005,36.682,7.324,78.757,1.251
0.04,0.962,0.258,2.808,22.461,4.639,77.727,1.525
0.006,0.979,0.175,-2.014,17.151,3.662,77.922,1.374
0,0.945,0.161,-2.625,8.118,2.319,78.267,1.129
0.012,0.967,0.194,6.836,1.404,-0.61,78.423,0.843
aX,aY,aZ,gX,gY,gZ,Roll,Pitch
0.022,0.96,0.217,9.399,-2.075,-0.854,79.01,0.59
0.002,0.922,0.232,-32.104,1.77,0.122,78.031,0.539
0.02,0.942,0.191,16.052,1.831,-0.793,77.566,0.827
0.051,0.916,0.279,8.789,-20.63,-3.296,76.129,1.416
0.037,0.972,0.195,-4.028,-47.18,-7.629,76.471,1.635
0.033,0.966,0.124,-3.113,-51.88,-7.874,78.093,2.081
0.022,0.922,0.123,1.099,-49.255,-9.155,79.01,2.128
0.027,0.997,0.149,-4.761,-44.312,-6.165,81.139,1.751
0.017,0.994,0.127,-12.512,-44.373,-5.005,82.202,1.444
0.007,0.965,0.067,-1.221,-38.269,-4.272,83.08,1.069
-0.011,1.014,0.001,-3.296,-6.775,-0.61,85.025,0.576
0.008,0.958,0.144,8.972,2.075,0.122,85.066,0.296
0.001,0.986,0.11,6.836,2.441,-0.061,85.308,0.064
-0.002,0.958,0.048,1.343,23.01,4.639,85.571,-0.075
0.008,0.98,0.133,9.766,39.551,6.897,83.595,0.201
0.018,0.967,0.2,8.423,41.016,8.423,82.799,0.355
0.02,0.962,0.202,-0.305,35.034,8.484,81.403,0.642
0.011,0.973,0.187,-1.526,31.982,6.165,79.427,0.832
0.006,0.969,0.189,7.507,33.63,6.775,78.606,0.809
0.011,0.96,0.199,3.784,32.227,6.836,78.596,0.708
0.007,0.956,0.185,0.854,29.663,5.981,78.842,0.523
0.018,0.952,0.191,-5.066,26.001,5.615,78.721,0.631
0.004,0.973,0.152,-7.263,26.978,5.188,79.259,0.592
0.034,0.947,0.193,2.991,24.414,5.188,79.294,0.923
0.027,0.96,0.204,-0.854,9.705,1.709,78.994,1.208
0.001,0.963,0.133,2.808,-1.953,0.916,79.878,0.951
-0.004,0.952,0.184,14.404,-0.122,-0.061,79.373,0.849
aX,aY,aZ,gX,gY,gZ,Roll,Pitch
0.016,0.959,0.19,2.258,0.671,0.61,79.468,0.586
0.02,0.941,0.211,-19.043,3.662,-2.014,79.32,0.494
-0.008,0.974,0.193,-12.756,-11.108,-2.502,78.496,0.355
0.056,0.978,0.164,-1.343,-35.767,-3.54,78.802,1.216
0.048,0.963,0.14,3.357,-54.749,-5.249,79.458,1.685
0.036,0.973,0.093,-6.958,-60.974,-6.287,81.175,1.901
0.035,0.992,0.063,3.845,-55.054,-5.554,82.831,2.536
0.025,0.973,0.1,11.23,-44.434,-4.7,83.846,2.094
0.012,0.957,0.091,6.653,-36.621,-4.7,84.672,1.581
0.005,0.972,0.078,1.526,-28.87,-3.113,84.991,1.135
-0.007,1.074,0.028,-27.283,-2.747,0.122,85.699,0.507
0.007,0.951,0.14,4.333,0.854,0,85.123,0.256
0.006,0.98,0.107,7.324,4.578,0.488,84.932,0.165
0.011,0.952,0.08,8.118,15.625,3.662,84.877,0.253
0.002,0.979,0.091,13.55,38.452,6.592,83.82,0.389
0.033,0.962,0.178,12.512,40.649,7.935,83.251,0.771
0.01,0.957,0.197,7.019,40.222,9.277,81.895,0.827
0.013,0.96,0.194,4.089,42.542,9.583,80.258,0.847
0.024,0.957,0.225,2.869,39.063,9.094,78.249,1.169
0.024,0.948,0.244,6.409,33.325,7.69,77.279,1.028
0.013,0.958,0.224,1.587,31.677,7.629,76.889,1.073
0.024,0.954,0.25,4.822,28.076,7.08,76.068,1.238
0.009,0.934,0.238,-3.296,21.423,5.005,75.811,1.022
0.033,0.93,0.256,-9.888,10.193,2.93,75.566,1.162
0.002,0.991,0.203,14.343,13.184,1.77,75.998,0.989
0.044,0.85,0.321,19.592,-2.991,2.563,74.575,1.303
aX,aY,aZ,gX,gY,gZ,Roll,Pitch
-0.002,0.959,0.222,6.775,0.122,0.244,74.921,1.136
-0.002,0.965,0.184,-22.766,4.395,-2.197,76.114,0.619
0.016,0.967,0.191,-1.038,-1.892,-1.648,76.193,0.832
0.041,0.949,0.21,-0.977,-26.306,-2.93,78.118,0.772
0.03,0.984,0.143,-1.892,-38.513,-4.395,79.279,1.241
0.039,0.965,0.168,3.418,-49.805,-6.226,79.411,1.838
0.059,0.959,0.147,32.104,-54.443,-9.277,79.868,2.481
0.021,0.974,0.149,3.967,-52.917,-9.216,80.843,2.178
0.022,0.992,0.18,-18.555,-52.673,-9.338,80.36,2.055
0.006,0.995,0.111,-16.357,-37.72,-4.272,81.332,1.563
-0.005,0.979,0.08,0.061,-22.766,-2.258,82.45,0.64
-0.017,0.995,0.057,-22.217,-13.733,-1.648,83.837,0.1
0,0.985,0.061,18.921,8.789,1.16,85.538,-0.22
-0.004,0.983,0.09,1.648,20.63,3.601,85.818,-0.357
-0.003,0.967,0.142,6.775,21.118,4.089,84.918,-0.331
0.004,0.989,0.112,-2.319,26.489,4.333,84.123,-0.032
-0.003,0.954,0.138,13.245,33.813,6.104,82.957,-0.084
0.009,0.965,0.185,7.263,29.907,5.798,81.536,0.105
0,0.974,0.178,7.629,34.058,6.836,81.02,0.142
0.008,0.963,0.201,2.686,33.813,7.446,79.67,0.196
0.007,0.951,0.212,4.15,30.701,7.08,78.593,0.351
0.008,0.959,0.205,-0.061,27.588,5.798,78.299,0.329
0.021,0.96,0.224,5.31,25.513,5.615,77.59,0.638
0.016,0.961,0.222,2.991,20.447,4.7,77.281,0.753
0.001,0.963,0.188,-2.502,20.386,4.639,77.671,0.665
0.017,0.956,0.235,-0.244,13,2.747,77.222,0.803
0.004,0.972,0.176,-1.465,0.916,0.122,77.96,0.549
0.012,0.969,0.203,7.08,2.014,0.122,78.253,0.491
0.011,0.953,0.221,11.353,-1.16,1.77,77.74,0.637
aX,aY,aZ,gX,gY,gZ,Roll,Pitch
0.017,0.947,0.178,13.489,-2.258,0.366,78.53,0.641
0.031,0.954,0.214,-27.71,-0.854,-1.831,77.911,1.041
0.049,0.936,0.24,-9.949,-21.729,-2.747,77.225,1.593
0.026,0.981,0.155,-1.648,-46.936,-6.47,78.22,1.808
0.037,0.953,0.148,-3.723,-55.42,-6.531,78.61,2.104
0.009,1.002,-0.011,-7.324,-44.495,-4.395,81.968,1.778
-0.009,0.988,-0.018,-0.854,-11.902,-0.916,85.885,0.928
0.018,0.948,0.154,9.583,1.038,0.305,85.894,0.807
0.033,0.956,0.107,-4.822,-14.343,-1.648,86.505,0.737
-0.018,1.02,0.009,17.151,5.859,15.381,86.296,0.341
0.002,0.986,0.041,11.963,30.334,3.967,85.427,0.499
-0.003,0.975,0.136,10.193,43.274,7.141,85.742,0.202
0.021,0.96,0.191,8.911,39.917,7.019,84.536,0.025
0.021,0.965,0.194,5.493,30.151,5.798,81.754,0.586
0.009,0.95,0.188,-1.221,22.4,4.272,79.552,0.693
0.01,0.974,0.168,-1.221,20.02,3.723,79.077,0.879
0,0.967,0.181,2.563,19.836,3.845,79.262,0.577
0.014,0.982,0.172,0.244,17.517,3.479,79.619,0.481
0.008,0.964,0.172,16.418,8.24,2.136,79.881,0.459
0.014,0.915,0.177,-0.671,15.32,3.906,79.585,0.523
-0.007,0.977,0.175,-3.296,1.221,-0.732,79.699,0.416
-0.006,0.982,0.223,24.292,-5.615,-0.916,78.975,0.127
aX,aY,aZ,gX,gY,gZ,Roll,Pitch