aX,aY,aZ,gX,gY,gZ,Roll,Pitch
-0.001,0.964,0.153,18.799,-1.465,1.587,80.981,-0.057
-0.003,0.99,0.131,-20.325,3.174,-1.648,81.722,-0.11
-0.008,1.184,0.052,102.966,14.221,-1.831,83.874,-0.213
0.08,0.743,0.418,-267.517,-16.113,17.334,78.95,0.992
0.013,0.962,0.155,-21.484,-5.188,0.488,78.892,1.194
0.055,1.105,0.303,19.531,-21.179,-5.432,76.765,1.957
0.079,0.812,0.257,45.105,-43.457,-13.062,72.308,3.419
-0.093,0.895,0.062,-126.831,-50.903,-0.122,78.34,0.791
0.029,1.306,0.205,-33.447,-35.889,-2.258,78.608,0.946
0.025,0.789,0.115,8.179,-51.453,-11.047,80.436,0.584
0.055,1.109,0.253,-1.038,-57.556,-9.033,81.18,0.213
-0.023,0.869,-0.042,-18.066,-48.523,-9.521,82.468,1.199
0.031,1.014,0.181,-9.338,-37.109,-2.319,82.241,1.315
-0.018,0.969,0.094,-27.893,-40.894,-4.7,82.968,0.638
-0.009,0.982,0.001,-0.061,-18.982,-1.831,86.492,-0.288
0.001,1.005,0.033,4.211,3.296,0.305,85.539,0.061
0,0.943,0.101,29.236,22.888,5.127,86.611,-0.38
-0.034,0.942,-0.062,48.767,11.108,-0.427,88.748,-0.621
-0.027,0.914,-0.049,-11.414,39.124,5.188,89.023,-0.908
0.045,1.365,0.068,66.04,38.391,-2.625,89.161,-0.227
0.003,0.875,0.152,37.781,20.691,1.526,88.45,-0.195
0.006,1.036,0.17,50.659,33.081,7.141,85.322,0.363
0.015,0.898,0.182,-113.159,56.274,15.198,82.125,0.941
-0.01,0.955,-0.005,23.193,32.41,2.136,82.423,0.221
-0.015,1.017,0.016,27.039,51.27,2.197,84.668,-0.052
0.018,0.911,0.128,13.367,50.415,8.057,85.123,0.125
0.01,0.974,0.196,18.188,44.617,7.812,85.023,0.043
0.045,0.975,0.229,5.981,26.855,4.15,81.598,0.849
0.003,0.959,0.17,4.639,19.836,3.357,79.224,1.123
0.037,0.893,0.242,21.118,5.005,2.014,77.514,1.399
0.012,0.966,0.178,5.249,0.549,-0.244,77.74,1.436
0.005,0.953,0.197,21.057,-2.991,1.221,78.202,0.857
aX,aY,aZ,gX,gY,gZ,Roll,Pitch
-0.003,0.96,0.211,3.418,0.183,-0.549,77.605,0.771
0.069,0.846,0.192,-18.86,5.432,-4.944,78.14,1.261
0.032,0.978,0.305,36.255,0.061,-0.549,76.302,1.546
0.039,0.895,0.389,-8.057,-10.986,-2.502,73.262,2.047
0.016,0.793,0.271,-31.494,-22.827,-3.479,71.601,2.408
0.002,1.067,0.233,-4.7,-22.034,-5.31,72.159,1.304
-0.01,0.795,0.37,20.142,-28.564,-11.902,70.392,0.718
0.035,1.168,0.335,-75.012,-29.175,-7.08,72.438,0.614
0.034,0.831,0.303,48.035,-50.903,-15.686,72.162,0.873
0.002,0.974,0.261,29.297,-49.805,-17.822,71.362,0.883
0.006,0.988,0.23,-36.804,-41.565,-12.451,74.054,1.078
0.008,0.948,0.232,-4.028,-38.208,-9.766,74.648,0.745
0.007,0.943,0.183,-10.437,-34.18,-7.202,76.766,0.329
0.006,0.988,0.172,5.676,-36.865,-7.996,78.069,0.389
0.004,0.972,0.167,4.639,-19.226,-3.052,78.925,0.351
0.001,0.986,0.159,13.367,3.601,0.549,80.073,0.259
0,0.909,0.218,-18.433,8.179,4.761,79.478,0.169
-0.038,1.025,0.075,78.613,11.292,-1.648,80.947,-0.472
-0.004,0.71,0.322,38.696,31.555,13.916,77.937,-0.622
0.011,0.847,0.389,28.442,16.418,5.249,73.927,-0.483
0.008,0.946,0.303,-14.038,32.593,13.794,72.836,-0.366
0.019,0.923,0.284,-18.188,39.368,13.794,69.247,0.527
0.03,1.023,0.298,-12.817,48.523,15.991,71.17,0.983
0.003,0.936,0.275,-23.01,54.688,15.137,73.136,0.855
0.029,0.957,0.327,15.137,46.509,14.221,72.826,1.161
0.029,0.913,0.341,-10.62,47.18,18.066,72.003,1.292
0.043,0.922,0.369,14.465,40.71,11.536,70.564,1.506
0.021,0.922,0.312,9.888,24.658,8.057,69.971,1.769
0.022,0.917,0.334,5.493,22.156,8.118,69.69,1.685
0.009,0.873,0.325,4.883,10.254,3.662,69.729,1.41
0.011,0.949,0.275,-0.732,-1.038,-1.221,71.191,0.938
aX,aY,aZ,gX,gY,gZ,Roll,Pitch
0,0.946,0.25,22.095,-0.244,0.061,72.188,0.618
-0.018,0.985,0.186,-24.231,4.517,-6.897,74.579,0.016
0.003,0.963,0.22,47.791,6.348,-1.648,76.381,-0.069
0.054,0.879,0.362,-114.197,-9.277,4.15,74.898,0.566
-0.03,0.919,0.392,-35.645,-5.798,1.953,72.802,0.139
0.076,0.958,0.358,-42.847,-19.714,-0.366,70.24,1.51
0.031,0.994,0.118,-46.448,-55.359,-4.7,71.755,1.911
0.021,0.852,-0.033,165.649,-77.942,-4.395,77.281,1.472
-0.051,0.885,0.025,46.326,-45.166,-13.306,82.688,1.177
0.046,1.16,0.301,-23.376,-39.063,-4.211,83.955,0.679
0.02,0.792,0.082,-9.033,-47.607,-7.874,84.191,0.555
-0.021,1.048,0.129,-41.016,-50.964,-7.507,82.145,-0.082
-0.005,0.956,0.034,5.92,-47.546,-5.92,82.126,0.585
-0.004,0.958,0.121,12.146,-24.719,-3.052,84.432,-0.143
-0.011,0.974,0.093,2.502,-16.113,-2.136,84.503,-0.591
0.006,1.104,0.135,74.28,0,-1.16,84.527,-0.201
-0.006,0.835,0.372,2.38,13.916,5.066,79.455,-0.217
-0.028,0.99,0.053,14.099,22.766,5.676,80.486,-0.566
-0.002,1.018,0.164,43.579,47.974,5.127,79.594,-0.429
0.036,0.999,0.36,8.24,37.231,12.756,76.112,-0.004
0.01,0.977,0.287,23.621,45.532,14.221,77.755,0.211
0.005,0.968,0.324,31.067,43.884,9.949,73.993,0.665
0.008,0.912,0.322,-24.658,37.354,15.137,71.43,0.813
0,0.935,0.262,-0.305,40.405,13.55,72.491,0.324
0.008,0.929,0.259,-9.277,43.64,12.817,72.672,0.307
0.007,0.959,0.23,-17.029,35.461,8.728,73.962,0.34
0.026,1.003,0.288,-2.38,22.888,3.418,74.797,0.607
0.008,0.947,0.208,10.681,4.578,0.183,75.595,0.715
0.013,0.973,0.205,6.104,2.441,0.488,76.499,0.78
0.005,0.921,0.245,24.902,-1.282,4.395,76.158,0.76
aX,aY,aZ,gX,gY,gZ,Roll,Pitch
0.002,0.94,0.225,9.644,0.793,0.488,76.841,0.409
0.009,0.932,0.213,-17.212,3.601,0.61,76.721,0.423
-0.004,0.986,0.174,10.498,1.709,-1.221,77.207,0.175
0.035,1.252,0.3,158.203,-17.029,-11.841,77.467,0.573
0.009,0.857,0.307,-139.832,-10.132,5.31,76.112,0.686
0.017,1.104,0.149,-15.625,-15.259,0.488,77.484,0.769
0.018,0.853,0.176,64.392,-39.429,-9.705,77.046,1.086
0.068,1.213,0.468,-85.876,-43.213,-9.583,74.651,1.531
-0.017,0.792,0.219,42.236,-39.063,-13.123,75.639,1.192
0.023,0.959,0.356,-1.953,-41.748,-12.878,72.25,1.307
0.028,0.922,0.35,4.578,-48.218,-18.738,70.24,1.411
0.009,0.943,0.294,-10.925,-39.612,-14.343,71.37,0.649
0.019,0.951,0.253,-8.423,-28.259,-7.568,71.606,1.139
-0.003,0.953,0.217,-3.113,-23.01,-5.432,73.518,0.771
0,0.959,0.22,-2.38,-6.226,-1.892,75.492,0.366
0.01,0.967,0.206,-2.441,-6.897,-1.526,76.818,0.377
-0.002,0.967,0.234,31.128,5.066,0.244,77.139,0.073
0.018,0.993,0.208,-30.823,-6.775,-0.549,77.398,0.381
-0.005,0.926,0.12,15.869,16.907,4.15,78.725,0.31
0.031,1.091,0.083,-117.126,51.147,11.658,80.765,0.601
0.029,1.104,0.208,45.41,44.373,6.714,81.388,1.005
-0.013,0.792,0.199,-107.117,42.297,15.625,81.112,0.604
-0.009,0.909,0.177,3.662,32.532,8.057,80.27,0.552
0.001,0.985,0.208,0.366,41.26,10.01,78.194,0.114
0.026,0.989,0.204,-13.428,51.331,12.207,77.888,0.078
0.003,0.945,0.191,-3.174,48.279,10.559,78.481,0.313
0.001,0.977,0.157,-8.301,34.973,6.226,78.947,0.449
0.005,0.987,0.154,-3.601,30.945,4.822,79.722,0.517
-0.014,0.989,0.162,16.541,8.057,-0.183,80.343,-0.062
0.012,0.973,0.179,7.935,15.198,0.977,80.573,0.067
0.016,0.967,0.173,-2.625,7.324,1.343,80.317,0.283
-0.005,0.951,0.187,19.165,-3.052,2.319,79.757,0.137
aX,aY,aZ,gX,gY,gZ,Roll,Pitch
-0.05,1,0.22,26.245,1.099,1.221,78.953,-0.379
-0.042,0.988,0.166,-47.058,1.953,0.549,79.134,-1.16
0.006,0.951,0.136,11.292,-0.244,-0.732,79.6,-1.314
-0.006,0.965,0.158,2.747,0.916,0.61,80.049,-1.329
0.002,0.903,0.137,-85.144,-12.39,6.47,81.081,-0.601
0.001,1.033,0.061,15.686,-12.756,-1.77,82.731,0.047
0.044,1.006,0.277,99.487,-52.979,-13.794,80.787,0.602
-0.005,0.819,0.224,4.395,-52.979,-14.404,79.462,0.636
0.012,0.886,0.111,105.103,-63.477,-11.23,79.789,0.8
-0.016,0.976,0.128,-3.54,-43.457,-12.512,78.643,0.539
0.021,0.985,0.217,5.676,-35.828,-8.606,79.49,0.182
-0.008,0.967,0.213,19.287,-36.072,-10.132,80.044,0.139
0.005,0.963,0.273,5.92,-28.137,-7.446,77.942,0.032
-0.002,0.932,0.242,-7.996,-26.794,-7.08,76.196,0.244
0.009,0.956,0.248,-6.592,-17.822,-3.906,75.654,0.076
-0.008,0.972,0.172,9.766,-4.578,-2.014,76.259,0.078
-0.002,0.914,0.299,-0.549,-0.427,-0.488,75.709,-0.032
-0.021,0.975,0.185,14.465,8.057,2.441,76.668,-0.319
-0.016,0.814,0.199,-10.071,46.692,17.944,76.88,-0.71
0.019,0.893,0.111,83.252,26.123,1.282,77.53,-0.317
-0.03,0.838,0.141,38.33,26.733,4.15,79.726,-0.764
0,0.941,0.317,-18.005,40.955,14.832,77.567,-0.419
-0.001,0.909,0.25,17.944,41.565,13.184,77.121,-0.185
0,0.938,0.299,-6.042,44.373,16.479,74.48,-0.465
0.001,0.942,0.266,-10.742,48.523,15.747,73.123,0.009
0.028,0.95,0.282,3.967,41.87,12.634,73.647,0.409
0.019,0.903,0.254,2.441,29.846,9.46,73.547,0.712
0.001,0.907,0.273,19.47,24.658,4.883,73.783,0.728
0.013,0.901,0.337,-1.953,4.639,1.404,72.588,0.904
0,0.948,0.286,-5.371,-0.305,2.014,72.54,0.5
0.004,0.918,0.288,31.921,1.038,3.662,72.133,0.272
aX,aY,aZ,gX,gY,gZ,Roll,Pitch
-0.029,0.95,0.234,2.502,0.427,-0.122,72.884,-0.165
0.002,0.969,0.241,-31.616,5.554,0.854,74.511,-0.319
0.004,0.958,0.161,0.732,1.648,-0.61,76.323,-0.272
0.002,1.006,0.228,7.507,-8.423,-0.427,77.467,-0.29
0.029,1.06,0.421,-103.088,-23.804,-2.686,75.252,0.527
-0.011,0.979,0.278,-28.198,-23.437,-3.479,74.792,0.339
0.022,0.917,0.27,0.977,-56.885,-14.404,73.17,0.595
0.012,0.922,0.311,29.846,-66.711,-21.729,71.712,0.74
-0.009,0.981,0.317,-9.705,-59.021,-20.081,72.79,0.206
0.029,0.878,0.307,-0.061,-55.237,-23.132,71.933,0.796
0.014,0.988,0.309,-3.357,-50.171,-17.395,71.728,0.663
-0.014,0.96,0.28,-10.071,-29.419,-8.301,72.331,0.277
0.032,0.958,0.246,-18.616,-23.926,-5.92,73.19,0.872
-0.018,0.959,0.202,-7.446,-14.465,-2.563,74.988,0.196
-0.003,0.972,0.206,7.202,1.709,0.305,76.362,-0.055
-0.004,0.948,0.257,5.798,2.502,0.488,76.649,0.101
-0.002,0.962,0.147,-5.188,16.479,6.653,78.062,-0.392
-0.007,0.845,0.395,98.145,37.292,17.151,74.906,-0.234
0.02,0.988,0.264,-146.118,32.776,14.465,74.146,0.106
-0.007,1.081,0.142,11.414,37.537,5.615,76.245,0.06
0.002,0.94,0.295,89.661,52.246,15.381,74.118,0.119
0.021,0.922,0.36,-20.203,50.476,17.761,74.882,0.512
-0.01,0.945,0.275,-16.724,41.077,14.526,74.586,0.101
-0.001,0.986,0.196,6.47,53.528,13.306,73.47,0.179
0.022,0.978,0.256,5.737,42.603,10.254,74.15,0.462
0.013,0.964,0.244,-6.409,28.137,6.958,75.92,0.345
-0.005,0.961,0.215,0.854,23.621,5.432,76.802,0.408
0.002,0.985,0.28,4.7,14.587,2.38,75.638,0.451
-0.001,0.975,0.212,-4.089,3.418,0.793,76.249,0.119
-0.045,0.918,0.173,-14.648,17.151,4.822,77.074,-0.732
-0.002,0.963,0.163,-0.427,-2.075,-0.366,77.821,-0.678
aX,aY,aZ,gX,gY,gZ,Roll,Pitch
-0.011,0.947,0.217,6.531,0.305,-0.488,78.587,-0.876
0.002,0.987,0.216,-30.334,4.639,-0.916,78.569,-0.829
0.013,0.928,0.206,-22.522,2.502,3.967,78.149,0.03
0.016,0.872,0.207,39.001,-16.357,-1.953,77.229,0.301
-0.001,0.54,0.155,180.664,-53.04,-13.123,76.744,0.507
-0.028,0.954,0.33,6.104,-43.518,-17.151,74.76,0.008
0.031,0.777,0.385,13.672,-72.876,-25.33,71.091,0.32
0.01,1.084,0.186,-68.726,-73.364,-23.376,72.525,0.205
-0.015,0.969,0.19,-16.724,-48.279,-12.329,73.906,-0.018
0.004,0.971,0.19,-2.197,-40.833,-9.46,75.935,0.452
0.01,0.978,0.201,7.385,-32.959,-6.958,79.137,0.142
-0.002,0.959,0.234,3.174,-33.875,-7.996,78.115,-0.028
-0.014,0.947,0.153,5.432,-21.79,-4.578,78.581,-0.012
-0.011,0.972,0.195,18.372,4.211,0.366,78.516,-0.228
-0.007,0.954,0.246,4.883,1.648,0.122,77.801,-0.48
0,0.86,0.347,93.872,23.01,11.658,75.858,-0.46
-0.001,0.898,0.332,-55.237,54.077,26.001,73.092,-0.267
-0.034,0.916,0.197,70.496,54.138,10.986,72.813,-0.624
0.017,0.953,0.305,14.221,53.528,12.39,71.968,-0.266
-0.01,0.961,0.4,15.869,49.377,18.005,71.673,-0.403
0.006,0.907,0.379,-25.208,44.739,19.409,71.077,-0.296
-0.01,0.934,0.321,-37.292,46.57,18.127,69.488,0.061
0.011,0.964,0.222,-11.658,39.917,8.606,70.662,-0.028
0.005,0.954,0.202,-7.263,36.133,7.935,73.369,0.191
0.002,0.974,0.265,-2.38,27.954,7.08,75.226,0.125
-0.007,0.941,0.223,-2.93,17.395,4.211,76.631,0.169
-0.016,0.96,0.188,-11.78,14.526,3.723,77.095,-0.215
-0.014,0.944,0.19,6.592,1.77,0,77.222,-0.505
-0.017,0.964,0.184,28.625,-2.502,-0.366,78.336,-0.786
aX,aY,aZ,gX,gY,gZ,Roll,Pitch
-0.002,0.958,0.198,6.409,2.686,1.648,78.745,-0.721
0.008,0.975,0.249,-16.968,6.165,-2.197,77.934,-0.372
0.003,0.877,0.217,-18.127,-5.005,1.709,77.341,-0.123
-0.019,0.752,0.147,15.381,-15.564,-2.441,77.182,-0.161
0.045,1.049,0.498,-7.446,-37.354,-7.874,73.085,0.551
0.016,0.8,0.258,32.532,-66.162,-23.132,72.143,0.71
-0.035,1.043,0.235,-81.848,-44.495,-15.564,72.662,0.11
-0.03,0.832,0.216,52.429,-48.34,-14.526,72.043,-0.061
-0.001,0.932,0.323,7.935,-55.054,-18.921,74.011,-0.753
0.032,0.989,0.26,-26.55,-56.702,-20.691,74.745,-0.494
0.014,0.99,0.228,-16.296,-32.104,-8.423,74.646,0.22
-0.015,0.932,0.211,2.441,-27.405,-5.432,75.09,0.427
-0.029,0.963,0.16,1.831,-23.254,-3.601,77.493,0.018
-0.024,0.972,0.127,-3.845,-5.676,-1.892,79.308,-0.795
0.005,0.955,0.187,15.991,3.723,0.427,79.797,-0.928
-0.016,0.951,0.165,4.028,7.385,2.747,80.516,-0.931
0,1.063,0.04,18.799,46.936,7.019,82.491,-0.491
-0.016,0.75,0.118,-160.767,77.82,30.64,82.199,-0.408
0.017,1.078,0.254,-38.879,41.565,10.742,81.464,-0.227
-0.015,0.954,0.238,-21.79,46.997,15.869,80.403,-0.21
-0.019,0.923,0.134,-5.31,47.913,9.277,78.628,-0.507
-0.003,0.964,0.159,-6.104,49.133,8.728,78.662,-0.292
0.007,0.94,0.142,5.432,50.11,3.601,79.9,-0.453
0.011,0.957,0.105,-3.296,39.185,4.15,81.881,-0.068
0.019,0.992,0.135,1.953,40.222,3.54,81.992,0.496
0.026,0.994,0.187,13.55,16.174,1.16,81.603,0.927
0,0.988,0.158,6.042,4.395,2.563,81.482,0.824
0.002,0.97,0.149,6.653,0.366,-0.671,80.909,0.69
-0.011,0.96,0.14,11.78,-0.732,0.854,80.79,0.258
-0.015,0.979,0.226,5.127,0,-2.319,80.198,-0.341
aX,aY,aZ,gX,gY,gZ,Roll,Pitch
0.009,0.895,0.233,15.93,-1.587,0,75.404,0.537
0.009,0.987,0.126,-32.532,7.69,0.916,79.176,0.518
0.022,0.974,0.134,2.319,1.892,0.488,80.171,0.78
0.042,0.523,0.277,213.318,-24.78,-12.512,77.097,1.338
0.025,0.862,0.39,-95.032,-41.199,-13.306,74.433,1.605
0.07,1.226,0.366,-13.245,-51.392,-12.817,71.826,2.412
-0.025,0.654,0.059,35.156,-49.194,-16.296,71.423,1.854
0.02,1.062,0.326,19.409,-58.411,-14.465,73.248,1.291
0.031,0.944,0.219,2.502,-63.66,-22.705,75.913,1.358
0.02,0.926,0.302,13,-45.166,-13.306,75.795,0.699
-0.008,0.912,0.255,-15.015,-32.837,-10.559,73.974,0.899
0.018,0.991,0.272,-16.235,-30.518,-7.263,74.447,0.893
-0.012,1.037,0.166,-28.198,1.953,2.441,75.558,0.263
-0.028,0.844,0.158,51.086,23.254,7.446,77.305,-0.451
-0.051,0.932,-0.07,43.091,35.522,3.845,82.039,-1.094
0.006,1.02,0.087,6.287,69.031,10.559,84.747,-1.27
0.04,1.097,0.173,-11.841,68.542,7.812,84.861,-0.487
-0.006,0.953,0.085,28.564,63.721,3.418,86.057,-0.152
0.052,1.027,0.158,-6.287,41.87,5.066,82.878,1.274
0.005,0.954,0.127,3.052,36.194,3.113,82.215,1.274
0.001,0.97,0.115,8.423,30.945,2.93,82.873,0.748
0.012,0.984,0.099,-5.066,25.879,3.662,82.702,1.003
0.019,0.966,0.136,1.465,24.048,3.418,82.965,0.536
0.008,0.996,0.126,-2.991,16.296,2.258,83.05,0.587
0.003,0.955,0.116,-1.587,1.16,-0.183,83.004,0.619
0,0.979,0.103,3.296,0.977,-0.183,82.951,0.437
-0.017,0.972,0.125,14.16,-3.54,1.343,83.124,-0.082
aX,aY,aZ,gX,gY,gZ,Roll,Pitch
0,0.962,0.178,4.028,0,1.709,82.313,-0.203
-0.004,1.008,0.13,-20.63,4.639,-1.953,82.216,-0.295
0.002,0.821,0.199,59.265,-10.193,-2.808,80.472,-0.273
0.05,1.186,0.32,-101.868,-14.404,1.77,78.244,0.682
0.016,0.959,0.416,49.927,-19.287,-10.132,74.985,0.889
0.081,1.425,0.31,-184.387,-31.86,-12.878,74.071,1.866
-0.019,0.781,0.231,69.092,-40.833,-15.564,73.567,1.61
0.012,0.953,0.334,-5.981,-49.927,-18.494,72.562,1.194
0.03,0.906,0.293,26.489,-62.866,-23.315,73.907,1.409
0.015,0.963,0.242,-17.212,-60.974,-19.714,73.013,0.574
0.001,0.964,0.183,-15.076,-44.617,-11.169,74.459,0.842
0,0.964,0.206,-4.639,-33.142,-7.141,76.305,0.666
-0.014,0.972,0.192,-2.075,-20.691,-4.089,77.969,0.019
-0.018,0.981,0.177,2.258,-0.549,-0.122,78.937,-0.462
-0.006,0.93,0.218,-26.794,-0.916,1.343,78.329,-0.563
0.003,0.767,0.373,39.001,16.541,7.812,75.249,-0.537
-0.055,1.035,-0.029,26.306,12.268,0.244,78.693,-1.151
0.004,0.982,0.15,10.376,47.668,11.78,79.118,-0.815
0.039,1.087,0.384,209.412,41.748,15.137,77.226,-0.12
0.018,0.908,0.502,-22.156,49.011,21.667,75.922,0.086
-0.008,0.933,0.286,-11.047,46.692,18.86,71.306,0.739
-0.002,0.955,0.244,-40.405,57.983,17.09,69.96,0.65
0.011,0.976,0.195,-5.188,48.523,8.24,71.977,0.272
0.014,0.964,0.161,4.333,44.495,7.263,76.956,0.219
0.017,0.962,0.188,-7.874,35.767,7.202,78.432,0.583
0.021,0.969,0.232,6.47,13.733,2.014,78.61,0.92
-0.007,1.006,0.168,-1.465,1.343,0.244,79.098,0.644
-0.023,0.995,0.16,11.353,0.427,-1.77,79.225,0.103
aX,aY,aZ,gX,gY,gZ,Roll,Pitch
0.016,0.942,0.196,21.362,-0.854,0.671,79.052,0.086
0.027,0.995,0.227,-33.203,4.089,-0.854,79.193,0.174
-0.046,0.632,0.221,-26.245,-1.892,6.47,77.268,-0.421
-0.08,0.667,-0.023,23.315,-6.836,-0.732,79.021,-1.447
0.073,1.073,0.358,-10.559,-27.405,-4.639,76.89,-0.435
0.03,0.804,0.292,45.349,-57.739,-22.217,75.031,-0.415
0.001,1.099,0.131,-191.284,-52.124,-2.869,78.239,0.368
-0.023,1.058,0.18,12.146,-49.744,-10.376,76.56,1.121
0.017,0.83,0.129,2.808,-47.974,-13.794,79.066,0.369
0.003,0.969,0.258,-6.958,-37.231,-6.042,79.995,-0.019
0.002,1.013,0.109,-3.723,-34.18,-4.028,80.094,-0.004
-0.022,0.967,0.145,16.174,-28.992,-4.456,80.373,0.009
-0.01,0.984,0.104,0.122,-10.62,-2.014,81.094,-0.373
0.002,1.056,0.149,37.415,3.113,-1.648,82.808,-0.382
-0.016,0.957,0.277,23.132,3.784,-0.122,80.31,-0.645
0.009,1.051,0.222,-67.505,24.353,9.949,79.471,-0.204
-0.021,0.953,0.168,67.932,11.23,-0.427,78.513,-0.36
-0.01,0.947,0.241,-3.174,32.532,10.193,76.912,-0.539
-0.014,0.874,0.098,70.068,23.926,2.869,79.201,-0.53
-0.01,1.026,0.066,-25.696,43.091,6.287,81.393,-0.819
-0.013,1.016,0.12,48.889,55.542,5.005,82.229,-0.694
0.016,0.867,0.347,43.335,53.04,18.188,80.532,-0.325
-0.003,0.917,0.299,-40.466,43.335,16.357,77.74,-0.154
0.013,0.965,0.257,-5.92,42.236,11.658,74.799,0.186
0.014,0.961,0.248,-1.343,40.1,9.583,72.755,0.594
0.012,0.938,0.258,3.601,31.311,7.812,74.295,0.527
0.023,0.966,0.265,-3.906,18.005,4.517,74.943,0.901
0.006,0.947,0.26,0.732,6.409,1.77,74.841,0.795
0.012,0.959,0.201,6.165,-2.502,0.916,75.497,0.771
aX,aY,aZ,gX,gY,gZ,Roll,Pitch
-0.01,0.962,0.243,8.728,1.526,-0.488,75.809,0.456
-0.093,1.025,0.179,-35.522,3.967,0.366,77.158,-1.216
0.006,0.964,0.205,22.095,2.808,-0.916,77.977,-1.211
0.019,0.915,0.304,-4.272,-4.639,0.244,76.416,-1.129
0.035,0.85,0.385,41.382,-41.748,-16.357,74.039,-0.498
-0.051,0.899,0.149,-230.713,-45.044,-4.456,73.958,0.126
0.014,1.15,0.198,14.893,-47.668,-4.211,74.803,0.234
0.003,0.915,0.271,47.241,-57.678,-19.775,75.263,0.014
0.053,1.002,0.274,5.249,-62.439,-18.005,77.318,0.28
-0.007,0.955,0.218,-12.817,-45.227,-12.024,76.531,0.878
0.003,0.983,0.234,-3.601,-33.997,-7.263,75.478,0.761
-0.001,0.961,0.224,3.235,-34.119,-7.69,76.294,0.685
-0.025,0.976,0.162,-5.188,-21.118,-4.089,77.797,-0.443
-0.005,0.956,0.159,1.953,-10.01,-2.075,78.637,-0.41
-0.013,0.968,0.205,16.357,2.991,-0.061,78.996,-0.651
-0.009,0.984,0.357,72.021,22.461,7.874,77.181,-0.748
-0.007,0.807,0.271,-112.366,33.936,17.822,75.05,-0.502
-0.036,0.877,0.108,62.378,29.236,4.761,75.473,-0.985
0.023,1.032,0.375,46.753,45.166,21.545,73.293,-0.415
0.028,0.892,0.424,-21.423,58.411,29.175,71.931,0.133
0.03,0.922,0.335,19.897,59.692,22.705,71.547,0.661
0.017,0.917,0.337,0.977,54.932,19.775,68.62,1.39
0.017,0.926,0.351,-4.639,42.297,15.198,68.382,1.332
0.008,0.929,0.318,-7.629,35.034,11.414,70.026,1.041
0.014,0.932,0.301,3.601,20.447,6.042,70.549,0.81
0.009,0.94,0.285,-7.935,18.494,6.042,71.378,0.692
0.016,0.914,0.295,8.728,2.136,0.244,72.1,0.686
-0.018,0.956,0.219,-0.671,0,0.549,73.611,0.31
aX,aY,aZ,gX,gY,gZ,Roll,Pitch
-0.013,0.948,0.269,9.827,-0.793,-0.305,74.131,-0.079
-0.048,0.962,0.237,-36.621,4.7,-2.075,74.864,-0.913
0.037,0.905,0.287,-95.642,-7.629,4.456,74.955,-0.602
-0.008,0.691,0.047,193.115,-38.025,-8.911,76.5,-0.501
0.007,0.808,0.341,-53.833,-47.729,-11.475,74.822,-0.189
0.04,0.822,0.094,96.13,-88.196,-12.329,76.513,1.322
-0.04,1.312,0.354,-116.516,-52.429,-17.639,77.043,-0.009
-0.028,0.919,0.141,-0.671,-44.189,-11.597,76.472,-0.294
0.002,0.931,0.167,11.658,-50.11,-12.878,79.271,-0.362
-0.004,0.993,0.146,-9.399,-35.828,-6.47,78.967,-0.935
-0.013,0.993,0.135,-2.197,-22.827,-3.235,81.248,-0.622
-0.012,0.975,0.162,7.751,-12.329,-2.258,81.073,-0.383
-0.038,0.926,0.211,38.635,-7.874,-2.38,80.385,-0.965
-0.007,0.877,0.306,41.992,13.489,4.944,77.762,-1.044
-0.022,1.06,0.141,-27.1,19.897,5.188,77.878,-1.16
-0.04,0.894,-0.005,-13.245,36.499,5.737,80.011,-1.604
0.002,1.061,0.063,61.401,63.965,4.395,82.54,-0.971
-0.006,0.904,0.121,-11.536,70.801,13.062,85.232,-0.954
0.024,0.945,0.174,-12.939,71.533,12.268,84.681,-0.298
0.006,0.936,0.206,12.085,51.819,10.742,81.632,0.374
-0.002,0.973,0.169,-0.916,44.128,8.667,79.873,0.313
0.002,0.975,0.183,-2.258,40.222,7.812,79.155,0.427
0.021,0.954,0.251,5.981,19.226,2.869,78.072,0.392
-0.012,0.97,0.157,4.211,1.099,-0.488,78.881,0.129
-0.011,0.964,0.181,2.258,0.793,0.122,78.696,-0.005
aX,aY,aZ,gX,gY,gZ,Roll,Pitch